accelX, accelY, accelZ, magX, magY, magZ, gyroX, gyroY, gyroZ, packetNum
14080, 16384, 3073, -19201, -22530, 13566, -18927, 14848, 4352, 28892
14080, 16384, 3073, -18433, -22530, 13566, -19183, 14592, 4352, 29148
11264, 14592, 3329, -17665, -21762, 12798, -20207, 14592, 4864, 29660
11264, 14592, 3329, -17665, -21762, 13310, -20975, 14336, 4608, 29916
11264, 14592, 3329, -17153, -21762, 13310, -21231, 13568, 4864, 30172
8704, 12800, 5121, -17153, -20994, 12542, -21743, 12800, 4608, 30428
8704, 12800, 5121, -16385, -20482, 12030, -22255, 10752, 4864, 30940
8192, 12800, 3841, -15873, -20482, 12030, -22511, 10240, 4864, 31196
8192, 12800, 3841, -15873, -20482, 11774, -22511, 9984, 4864, 31452
8192, 12800, 3841, -15361, -20482, 11774, -22511, 9728, 4864, 31708
8448, 12544, 513, -15361, -18946, 11774, -22511, 9728, 4864, 31964
8448, 12544, 513, -14593, -18946, 11518, -22511, 10240, 5120, 32476
9472, 11520, 257, -14593, -18946, 11518, -22511, 10496, 5376, 32732
9472, 11520, 257, -14593, -18434, 10750, -22255, 11008, 5376, -32548
9472, 11520, 257, -13313, -18434, 10750, -22511, 12032, 5632, -32292
12544, 10752, 4097, -13313, -17410, 11006, -22767, 12800, 5888, -32036
12544, 10752, 4097, -13313, -17410, 11006, -23279, 14080, 6400, -31780
14592, 10496, 5633, -12801, -17154, 10494, -24559, 16128, 6912, -31268
14592, 10496, 5633, -12801, -16386, 9726, -25327, 15104, 7168, -31012
13568, 11776, 11265, -11521, -15874, 10238, -26607, 13824, 8448, -30500
13568, 11776, 11265, -11009, -15874, 10238, -27375, 13312, 8960, -30244
13568, 11776, 11265, -11009, -14850, 9470, -27631, 13568, 9984, -29988
10752, 12544, 5633, -10497, -13570, 8958, -28399, 14592, 11776, -29476
10752, 12544, 5633, -9985, -13570, 8958, -28655, 14592, 12288, -29220
6912, 11264, 769, -9985, -13570, 8702, -28399, 13824, 13056, -28964
6912, 11264, 769, -9729, -11778, 7934, -27631, 13568, 12544, -28452
2816, 7680, -1792, -9217, -11778, 7934, -26863, 13312, 12032, -28196
2816, 7680, -1792, -9217, -11778, 7934, -25839, 12800, 10752, -27940
2816, 7680, -1792, -8961, -11778, 7934, -24815, 12800, 9984, -27684
-1793, 1280, -7424, -8961, -10754, 7422, -24047, 13824, 8960, -27428
-1793, 1280, -7424, -8449, -10754, 7422, -23279, 14336, 7680, -27172
-1793, 1280, -7424, -8449, -9730, 6910, -22255, 14336, 6912, -26916
-7169, -3841, -10752, -7681, -9730, 6910, -20975, 14336, 5376, -26660
-7169, -3841, -10752, -7169, -9730, 7166, -18159, 13824, 2560, -26148
-7937, -7425, -13568, -7169, -8962, 6910, -16623, 14080, 1280, -25892
-7937, -7425, -13568, -6145, -8962, 6910, -15343, 14336, 0, -25636
-7937, -7425, -13568, -6145, -8962, 6910, -13807, 14592, -13551, -25380
-6401, -7425, -16128, -5377, -8962, 6654, 2048, 15104, -15599, -24868
-6401, -7425, -16128, -4609, -8962, 6654, 3328, 15872, -16367, -24612
-3585, -5633, -18176, -4609, -8706, 6910, 5120, 16384, -17135, -24356
-3585, -5633, -18176, -3073, -8706, 6910, 6400, 17408, -17647, -24100
-3585, -5633, -18176, -3073, -9986, 7422, 8192, 17664, -18415, -23844
-1793, -4609, -19200, -2561, -9986, 7422, 9472, 17408, -18927, -23588
-1793, -4609, -19200, -769, -9730, 7422, 12032, 17152, -19183, -23076
-2049, -3585, -17152, -769, -10754, 8190, 13312, 16384, -19439, -22820
-2049, -3585, -17152, -1, -10754, 8190, 14336, 16128, -19695, -22564
-2049, -3585, -17152, -1, -11522, 8702, 15104, 15872, -19951, -22308
512, -5121, -12800, 1280, -11522, 8702, 15872, 15360, -20207, -22052
512, -5121, -12800, 1280, -11778, 9470, 16128, 15104, -20463, -21796
2048, -5121, -8960, 2560, -13570, 10494, 16640, 13312, -20463, -21284
2048, -5121, -8960, 3328, -13570, 10494, 16384, 12032, -20463, -21028
4096, -4609, -3584, 4864, -14082, 10750, 16384, 8960, -20207, -20516
4096, -4609, -3584, 4864, -15106, 11262, 15616, 7424, -19695, -20260
4096, -4609, -3584, 5376, -15106, 11262, 15104, 5376, -19183, -20004
5632, -4609, 1281, 5376, -16386, 12030, 14592, 3840, -18671, -19748
5632, -4609, 1281, 5632, -16386, 12030, 13568, 2048, -17903, -19492
7168, -5121, 8193, 6656, -16386, 12286, 11520, -13039, -16879, -18980
7168, -5121, 8193, 6656, -17666, 13054, 10496, -13807, -16111, -18724
5120, -3585, 8193, 6656, -17922, 13054, 8192, -15087, -15087, -18212
5120, -3585, 8193, 7168, -17922, 13054, 7424, -15343, -14575, -17956
1536, -4097, 6145, 6656, -18434, 13822, 5632, -14063, -14319, -17444
1536, -4097, 6145, 6656, -19202, 13822, 4608, 1536, -15087, -17188
1536, -4097, 6145, 6400, -19202, 13822, 3840, 4608, -16367, -16932
-9473, -6145, -3840, 6400, -18946, 13566, 3328, 6656, -18159, -16676
-9473, -6145, -3840, 7680, -19202, 14334, 2816, 7680, -22511, -16164
-12545, -8705, -256, 6912, -19202, 14334, 2816, 8960, -25327, -15908
-12545, -8705, -256, 6912, -19458, 14078, 2816, 10496, -27887, -15652
-12545, -8705, -256, 8704, -19458, 14078, 2816, 11776, -30191, -15396
-8961, -6657, 1, 8704, -18946, 14590, 2560, 13056, -31983, -15140
-8961, -6657, 1, 9984, -18946, 14590, 2560, 13568, 32529, -14884
-8961, -6657, 1, 9984, -19458, 14846, 2048, 14336, 32017, -14628
-5889, -1025, 2049, 11264, -19458, 14846, 1536, 14848, 30993, -14372
-5889, -1025, 2049, 13312, -18946, 14846, 256, 14336, 32273, -13860
-4609, 5120, 3329, 13312, -19458, 15102, -13039, 13568, -32751, -13604
-4609, 5120, 3329, 14592, -19458, 15102, -13551, 11520, -31727, -13348
-4609, 5120, 3329, 14592, -18946, 15358, -14319, 9216, -30703, -13092
-5121, 10752, 5889, 15872, -18946, 15358, -14575, 7168, -29935, -12836
-5121, 10752, 5889, 15872, -18178, 15358, -14831, 4608, -29167, -12580
-5633, 12544, 3585, 17664, -18434, 15102, -15087, 0, -27631, -12068
-5633, 12544, 3585, 17920, -18434, 15102, -15087, -15087, -27375, -11812
-5633, 12544, 3585, 17920, -17154, 14846, -14575, -17647, -27119, -11556
-10241, 10240, -3840, 19200, -17154, 14846, -14319, -20463, -27119, -11300
-10241, 10240, -3840, 19200, -17666, 15358, -13551, -23023, -27119, -11044
-10241, 10240, -3840, 18944, -17666, 15358, -12783, -25327, -27375, -10788
-10241, 7680, -9216, 18944, -17154, 15102, 512, -27119, -27375, -10532
-10241, 7680, -9216, 19200, -17154, 15102, 1536, -28399, -27119, -10276
-1281, 9216, -5376, 18944, -16898, 14846, 3072, -27631, -26351, -9764
-1281, 9216, -5376, 18944, -17666, 15102, 3328, -26095, -25327, -9508
-1281, 9216, -5376, 18688, -17666, 15102, 3328, -23791, -24047, -9252
5888, 10240, 5377, 18688, -17154, 14846, 3072, -19951, -22767, -8996
5888, 10240, 5377, 18688, -17154, 14846, 2560, -16111, -21231, -8740
5888, 10240, 5377, 18688, -17410, 15358, 2048, 256, -19695, -8484
7936, 10496, 10241, 18432, -17410, 15358, 1280, 4352, -18415, -8228
7936, 10496, 10241, 18432, -17410, 15358, 512, 7936, -17135, -7972
2816, 14848, 13313, 18688, -16898, 15614, -13551, 13312, -15599, -7460
2816, 14848, 13313, 19712, -16898, 15614, -14319, 14848, -15343, -7204
2816, 14848, 13313, 19712, -17666, 16382, -14831, 15872, -15087, -6948
-4865, 22272, 8449, 20224, -17666, 16382, -15599, 16128, -15599, -6692
-4865, 22272, 8449, 21504, -16898, 15870, -16111, 15104, -16623, -6180
-13569, 24320, 5633, 21504, -17154, 16382, -16367, 14080, -17647, -5924
-13569, 24320, 5633, 22272, -17154, 16382, -16623, 13312, -18927, -5668
-19713, 23552, 1537, 23552, -17154, 16638, -17135, 12032, -21999, -5156
-19713, 23552, 1537, 23552, -16386, 16638, -17391, 11264, -23535, -4900
-19713, 23552, 1537, 24832, -16386, 16638, -17391, 10752, -25071, -4644
-23041, 22784, -2304, 24832, -16642, 17150, -17391, 10240, -26607, -4388
-23041, 22784, -2304, 25088, -16642, 17150, -17647, 9728, -27887, -4132
-23041, 22784, -2304, 25088, -16130, 16638, -17391, 9216, -28911, -3876
-21249, 24064, -2816, 26624, -15362, 16894, -17391, 7680, -30703, -3364
-21249, 24064, -2816, 27392, -15362, 16894, -17647, 7168, -30959, -3108
-17153, 26368, -2560, 27392, -15618, 16894, -17647, 6656, -31215, -2852
-17153, 26368, -2560, 28416, -15618, 16894, -17903, 6400, -31215, -2596
-17153, 26368, -2560, 28416, -14338, 16894, -18159, 6144, -30959, -2340
-12545, 27136, -2304, 29952, -14338, 16894, -18159, 6144, -30703, -2084
-12545, 27136, -2304, 29952, -14594, 17150, -18159, 6144, -30191, -1828
-12545, 27136, -2304, 30208, -14594, 17150, -18159, 6144, -29679, -1572
-9217, 27648, -5120, 30208, -13570, 16894, -18415, 4352, -28911, -1316
-9217, 27648, -5120, 31744, -13570, 16894, -17135, 3840, -27631, -1060
-9217, 27648, -5120, 31744, -13058, 17150, -16623, 6912, -27631, -804
-1793, 24320, -12032, 32256, -13058, 17150, -16879, 9216, -27631, -548
-1793, 24320, -12032, 32256, -13058, 17406, -16623, 8704, -27375, -292
-9217, 28160, -4608, -32256, -12290, 17406, -15599, 5120, -25839, 221
-9217, 28160, -4608, -30976, -12290, 17406, -15343, 4608, -25327, 477
-9217, 28160, -4608, -30976, -12290, 17406, -15087, 4864, -25071, 733
-8193, 26880, -8960, -30976, -12034, 17662, -14063, 6656, -25327, 1245
-8193, 26880, -8960, -29440, -12034, 17662, -13551, 6656, -25583, 1501
-10497, 24832, -11264, -29440, -11266, 17406, -13039, 5888, -25583, 1757
-10497, 24832, -11264, -28928, -11266, 17406, 256, 4352, -25583, 2013
-13825, 24576, -7168, -28416, -11778, 17406, 1280, 5632, -26351, 2525
-13825, 24576, -7168, -28416, -11266, 17662, 1280, 6144, -26607, 2781
-13825, 24576, -7168, -27392, -11266, 17662, 1280, 5376, -26863, 3037
-17921, 27136, -3584, -27136, -11778, 18174, 1024, 4864, -27631, 3549
-17921, 27136, -3584, -27136, -11266, 17918, 1024, 5632, -28399, 3805
-19969, 24576, -4864, -25856, -11266, 17918, 256, 6144, -29167, 4061
-19969, 24576, -4864, -25856, -10754, 18430, 0, 5888, -30191, 4317
-19969, 24576, -4864, -25344, -10754, 18430, -12783, 5376, -30959, 4573
-23297, 22528, -2048, -25344, -11010, 18430, -13039, 5120, -31727, 4829
-23297, 22528, -2048, -24576, -11010, 18430, -13551, 4864, -32751, 5085
-23297, 22528, -2048, -24576, -10498, 18174, -14063, 4096, 32017, 5341
-23297, 23552, -2304, -23040, -10498, 18174, -14575, 3584, 31249, 5597
-23297, 23552, -2304, -23040, -9986, 18174, -14831, 3072, 31249, 5853
-23297, 23552, -2304, -22784, -9986, 18174, -15343, 3328, 29969, 6109
-21505, 22016, -4096, -21504, -9218, 18430, -15855, 3328, 29201, 6621
-21505, 22016, -4096, -21504, -8194, 18430, -16111, 3328, 28433, 6877
-19713, 19456, -3584, -20480, -8450, 18686, -16623, 2816, 27921, 7389
-19713, 19456, -3584, -19200, -8450, 18686, -17135, 2816, 27921, 7645
-15873, 17920, -3584, -19200, -6914, 18430, -17647, 2560, 28177, 7901
-15873, 17920, -3584, -17920, -6914, 18430, -18415, 2816, 28689, 8157
-15873, 17920, -3584, -17920, -6146, 18174, -18671, 3072, 28689, 8413
-11777, 15616, -6144, -17664, -6146, 18174, -18927, 3328, 28433, 8669
-11777, 15616, -6144, -17664, -5634, 17918, -19439, 3328, 29969, 8925
-11777, 15616, -6144, -16640, -5634, 17918, -19439, 3328, 30225, 9181
-8961, 13824, -7936, -16640, -4354, 18174, -19439, 3328, 30737, 9437
-8961, 13824, -7936, -15104, -4354, 18174, -19695, 2816, 30481, 9693
-6913, 11776, -8448, -14592, -3586, 17918, -19439, 2560, 31761, 10205
-6913, 11776, -8448, -14592, -2306, 17662, -19439, 2304, 32273, 10461
-6913, 11776, -8448, -13568, -2306, 17662, -19439, 2304, -32495, 10717
-5633, 7936, -11776, -13568, -1538, 17406, -18927, 2048, -31983, 10973
-5633, 7936, -11776, -12800, -1538, 17406, -18671, 2304, -31471, 11229
-5633, 7936, -11776, -12800, -1538, 17150, -18415, 2304, -30959, 11485
-5377, 5120, -13312, -12288, -1538, 17150, -17903, 2304, -30191, 11741
-5377, 5120, -13312, -12288, 511, 16894, -17391, 2304, -29679, 11997
-5377, 5120, -13312, -11008, 511, 16894, -16623, 2304, -28911, 12253
-5633, 3584, -14592, -11008, 255, 17406, -16111, 2304, -28399, 12509
-5633, 3584, -14592, -10752, 1279, 16894, -14575, 2304, -27631, 13021
-4865, 2560, -16128, -9984, 1279, 16894, -13807, 2304, -27119, 13277
-4865, 2560, -16128, -9728, 1791, 17150, 256, 2304, -26607, 13789
-6145, 3072, -16128, -9728, 1791, 17662, 1024, 2048, -26351, 14045
-6145, 3072, -16128, -9216, 1791, 17662, 1280, 2048, -26351, 14301
-6145, 3072, -16128, -9216, 3071, 17150, 1792, 1792, -26351, 14557
-8449, 2816, -14336, -8448, 2303, 17662, 2560, 1792, -25839, 15069
-8449, 2816, -14336, -7936, 2303, 17662, 3072, 1792, -25839, 15325
-10753, 3072, -14336, -7936, 2815, 17662, 3584, 1536, -25839, 15581
-10753, 3072, -14336, -7424, 3327, 17918, 4352, 768, -26095, 16093
-12545, 4352, -11776, -7168, 3327, 17918, 4864, 512, -26095, 16349
-12545, 4352, -11776, -6912, 2559, 17918, 4864, -13039, -26095, 16861
-12545, 4864, -7168, -6912, 3583, 17918, 4608, -13295, -26351, 17117
-12545, 4864, -7168, -5888, 3327, 18174, 3328, -14319, -26351, 17629
-11777, 6144, -1536, -6144, 3327, 18174, 2560, -14831, -26351, 17885
-11777, 6144, -1536, -6144, 3839, 18174, 1792, -15087, -26095, 18141
-11777, 6144, -1536, -5632, 3839, 18174, 1024, -15087, -26095, 18397
-11009, 7168, 1, -5632, 4351, 17918, 256, -15599, -25583, 18653
-11009, 7168, 1, -5120, 4351, 17918, -13039, -16111, -25327, 18909
-11009, 7168, 1, -5120, 4351, 17918, -13807, -16623, -24815, 19165
-10497, 7168, -256, -5120, 4351, 17918, -14319, -16879, -24559, 19421
-10497, 7168, -256, -5120, 5631, 17918, -14831, -17391, -24047, 19677
-10497, 7168, -256, -4864, 5631, 17918, -15087, -17903, -23279, 19933
-9985, 7936, -256, -4864, 5119, 17918, -15343, -17903, -22767, 20189
-9985, 7936, -256, -4864, 5119, 17918, -15087, -18159, -21999, 20445
-9985, 7936, -256, -4864, 5887, 17406, -15087, -18159, -21231, 20701
-8705, 8192, -2816, -5120, 5887, 17406, -14575, -18159, -20463, 20957
-8705, 8192, -2816, -5120, 6655, 17406, -14319, -17903, -19695, 21213
-8705, 8192, -2816, -4608, 6655, 17406, -13807, -17647, -19183, 21469
-7169, 8192, -4864, -4608, 5887, 16894, -13295, -17391, -18415, 21725
-7169, 8192, -4864, -5376, 5887, 16894, 0, -17135, -17903, 21981
-7169, 8192, -4864, -5376, 6911, 17150, 256, -17135, -17135, 22237
-6657, 8704, -5376, -4864, 6399, 16894, 1536, -16879, -16111, 22749
-7681, 7936, -4608, -5376, 6399, 16894, 2048, -16879, -15855, 23005
-7681, 7936, -4608, -5376, 6399, 16894, 2816, -17135, -15599, 23261
-7681, 7936, -4608, -5120, 6399, 16894, 3328, -17135, -15343, 23517
-7937, 7936, -2304, -5120, 7167, 16894, 3840, -17135, -15087, 23773
-7937, 7936, -2304, -5376, 7167, 16894, 4096, -17135, -14831, 24029
-7937, 7936, -2304, -5376, 6143, 16894, 4608, -17135, -14575, 24285
-9217, 6912, -768, -5888, 6399, 16638, 4608, -16623, -14319, 24797
-9217, 6912, -768, -5888, 6399, 16638, 4608, -16367, -14319, 25053
-10241, 5376, 1281, -5888, 6399, 17406, 4864, -16367, -14319, 25309
-10241, 5376, 1281, -6144, 6399, 17406, 4608, -16111, -14063, 25565
-10241, 5376, 1281, -6144, 5631, 17150, 4608, -16111, -14063, 25821
-9729, 5120, 2561, -6144, 6143, 16894, 3840, -15855, -13807, 26333
-9729, 5120, 2561, -5888, 6143, 16894, 3584, -15855, -13551, 26589
-7937, 5632, 769, -5888, 5119, 17406, 3072, -16111, -13551, 26845
-7937, 5632, 769, -6400, 5631, 16894, 2048, -16879, -13039, 27357
-7169, 5888, 1537, -6400, 5631, 16894, 1536, -17391, -12783, 27613
-7169, 5888, 1537, -6400, 5375, 16894, 1024, -18159, 256, 27869
-5377, 6912, 513, -6656, 4863, 16894, -12783, -19695, 1280, 28381
-5377, 6912, 513, -7168, 4863, 16894, -13295, -20975, 1536, 28637
-5377, 6912, 513, -7168, 5631, 16382, -14063, -22255, 2304, 28893
-6913, 6656, -2048, -7680, 5631, 16382, -14575, -23279, 2816, 29149
-6913, 6656, -2048, -7680, 5119, 16126, -15343, -24559, 3328, 29405
-6913, 6656, -2048, -8192, 5119, 16126, -15855, -25583, 3584, 29661
-7937, 6400, -5120, -8192, 4863, 15870, -16111, -26607, 3840, 29917
-7937, 6400, -5120, -8960, 4863, 15870, -16367, -27119, 4096, 30173
-7937, 6400, -5120, -8960, 5631, 15358, -16623, -27887, 4096, 30429
-8961, 7168, -9472, -9728, 5631, 15358, -16879, -27887, 4096, 30685
-8961, 7168, -9472, -9728, 5119, 14846, -16879, -27375, 3840, 30941
-8961, 7168, -9472, -11008, 5119, 14846, -16879, -26863, 3584, 31197
-9217, 7168, -13568, -11008, 5887, 14334, -16367, -26351, 3328, 31453
-9217, 7168, -13568, -11520, 5887, 14334, -16111, -25839, 2816, 31709
-9985, 7168, -15872, -12544, 5375, 14334, -15343, -24559, 2304, 32221
-9985, 7168, -15872, -12544, 5887, 13822, -14575, -24047, 1792, 32477
-9985, 7168, -15872, -13056, 5887, 13822, -14063, -24047, 1536, 32733
-10241, 5632, -16640, -13056, 6143, 13566, -13295, -23279, 1024, -32547
-10241, 5632, -16640, -13824, 6143, 13566, -12783, -23023, 768, -32291
-9985, 3328, -14848, -14336, 5119, 13310, 1280, -22255, 512, -31779
-9985, 3328, -14848, -15104, 5887, 13054, 2560, -21487, 256, -31267
-9729, 3072, -12544, -15104, 5631, 13054, 2816, -21231, 256, -31011
-9729, 3072, -12544, -15616, 5631, 13054, 3072, -20975, 256, -30755
-9729, 3072, -12544, -15616, 5375, 12798, 3328, -20719, 256, -30499
-9473, 3840, -10496, -16128, 5375, 12798, 3584, -20463, 512, -30243
-9217, 4608, -7936, -17152, 4607, 12542, 2816, -19695, 1280, -29219
-9473, 5632, -7168, -17664, 5375, 12542, 2304, -19951, 1536, -28707
-9473, 5632, -7168, -17664, 4607, 12798, 2304, -19695, 1792, -28451
-9473, 5632, -7168, -17920, 4607, 12798, 1792, -19695, 1792, -28195
-10497, 5632, -8192, -17920, 4607, 12542, 1792, -19951, 2048, -27939
-10497, 5632, -8192, -18432, 4607, 12542, 1792, -19951, 2304, -27683
-10497, 5632, -8192, -18432, 5119, 12542, 1536, -20207, 2304, -27427
-11265, 6400, -9216, -19200, 5119, 12542, 1280, -20207, 2560, -27171
-11265, 6400, -9216, -19200, 3839, 12798, 1536, -20719, 2816, -26915
-11265, 6400, -9216, -19456, 3839, 12798, 1536, -21231, 3072, -26659
-12801, 7680, -9216, -19456, 4351, 12030, 1792, -21999, 3072, -26403
-12801, 7680, -9216, -19712, 4351, 12030, 2048, -22511, 3328, -26147
-12801, 7680, -9216, -19712, 4095, 12286, 2304, -23279, 3328, -25891
-14337, 7424, -7680, -20736, 3327, 12030, 2816, -24559, 3840, -25379
-15361, 7936, -4096, -21248, 4095, 12030, 3328, -25071, 3840, -24867
-15361, 7936, -4096, -22272, 4095, 12030, 3328, -25327, 3840, -24611
-15361, 7936, -4096, -22272, 3071, 12030, 3584, -25071, 3584, -24355
-16385, 8960, -1792, -23040, 3071, 12030, 3584, -25071, 3328, -24099
-16385, 8960, -1792, -23040, 3327, 11518, 3584, -24303, 2816, -23843
-16385, 8960, -1792, -23552, 3327, 11518, 3584, -23791, 2304, -23587
-17153, 9472, 769, -23552, 3071, 11518, 3328, -22767, 1792, -23331
-17153, 9472, 769, -24320, 3071, 11518, 3072, -22255, 1280, -23075
-17153, 9472, 769, -24320, 2303, 11518, 2560, -21487, 768, -22819
-17665, 9728, 3585, -24832, 2303, 11518, 2304, -20975, 256, -22563
-17665, 9728, 3585, -24832, 2559, 11262, 1792, -20719, -12783, -22307
-17665, 9728, 3585, -25600, 2559, 11262, 1536, -20207, -13295, -22051
-17409, 9216, 4097, -25600, 2047, 11518, 1024, -19951, -13551, -21795
-17409, 9216, 4097, -26112, 2047, 11518, 1024, -19439, -13807, -21539
-17409, 9216, 4097, -26112, 2559, 11262, 768, -19183, -13807, -21283
-15617, 9728, 5377, -26112, 2559, 11006, 256, -18415, -14063, -20771
-15617, 9728, 5377, -26624, 2559, 11006, 512, -17903, -14063, -20515
-13569, 10752, 4353, -26624, 2047, 11262, 256, -17391, -14063, -20259
-13569, 10752, 4353, -27136, 2047, 11262, 256, -16623, -14063, -20003
-13569, 10752, 4353, -27136, 2815, 10750, 256, -16111, -14063, -19747
-12545, 8960, 4353, -26880, 2815, 10750, 256, -15343, -14063, -19491
-12545, 8960, 4353, -26880, 2303, 11006, 256, -14319, -14063, -19235
-12545, 8960, 4353, -27136, 2303, 11006, 0, -13807, -13807, -18979
-12289, 7424, 4609, -27136, 2303, 10750, 0, -12783, -13807, -18723
-12289, 7424, 4609, -27136, 2303, 10750, 256, 0, -13807, -18467
-12289, 7424, 4609, -27136, 2815, 11006, 0, 512, -13807, -18211
-11009, 4864, 5121, -27392, 2815, 11006, 0, 1024, -13807, -17955
-11009, 4864, 5121, -27392, 2047, 11262, 0, 1280, -13551, -17699
-11009, 4864, 5121, -27392, 2047, 11262, -12783, 1280, -13551, -17443
-11009, 4352, 4609, -27392, 2815, 11006, -13039, 1280, -13295, -17187
-11009, 4352, 4609, -27392, 2815, 11006, -13039, 1536, -13039, -16931
-11009, 4352, 4609, -27392, 2559, 11262, -13295, 1024, -12783, -16675
-11777, 3072, 3841, -27136, 2559, 11262, -13807, 512, -12783, -16419
-11777, 3072, 3841, -27136, 2303, 11262, -13807, 256, 0, -16163
-11777, 3072, 3841, -26880, 2303, 11262, -14063, 0, 256, -15907
-12801, 2304, 1793, -26880, 2559, 11006, -14063, -13039, 256, -15651
-12801, 2304, 1793, -26880, 2559, 11006, -14063, -13295, 512, -15395
-12801, 2304, 1793, -26880, 2303, 11262, -14063, -13807, 512, -15139
-13057, 1536, 257, -26880, 2303, 11262, -14063, -14063, 768, -14883
-13057, 1536, 257, -26880, 3071, 10750, -13807, -14575, 768, -14627
-13057, 1536, 257, -26880, 3071, 10750, -13807, -14831, 768, -14371
-13569, 1024, -256, -26880, 2559, 11006, -13551, -15343, 768, -14115
-13569, 1024, -256, -27136, 2559, 11006, -13295, -15599, 1024, -13859
-13569, 1024, -256, -27136, 2559, 11006, -12783, -15599, 768, -13603
-12801, -1, 1, -26880, 2559, 11006, 0, -15599, 768, -13347
-12801, -1, 1, -26880, 3071, 10750, 256, -15855, 512, -13091
-11777, -2049, 1, -27392, 2303, 11006, 1024, -15599, 768, -12579
-11777, -2049, 1, -27648, 2303, 11006, 1536, -15599, 512, -12323
-11777, -2049, 1, -27648, 3071, 10494, 1792, -15599, 512, -12067
-11009, -2561, 769, -27136, 3071, 10494, 2048, -15599, 512, -11811
-11009, -2561, 769, -27136, 2815, 11262, 2304, -15343, 256, -11555
-11009, -2561, 769, -27904, 2815, 11262, 2304, -15343, 512, -11299
-10497, -3073, 2561, -27904, 2047, 10750, 2304, -15087, 512, -11043
-10497, -3073, 2561, -27904, 2047, 10750, 2304, -14831, 512, -10787
-8961, -2817, 4865, -27904, 2559, 10494, 1792, -14575, 512, -10275
-8961, -2817, 4865, -27904, 1791, 11262, 1280, -14319, 512, -10019
-8961, -2817, 4865, -28416, 1791, 11262, 1024, -14063, 768, -9763
-7169, -1793, 6401, -28416, 1791, 10750, 512, -13551, 1024, -9507
-7169, -1793, 6401, -28160, 1791, 10750, 256, -13039, 1024, -9251
-7169, -1793, 6401, -28160, 2047, 11006, -12783, -12783, 1280, -8995
-6913, -1025, 6145, -28160, 2047, 11006, -13295, 512, 1280, -8739
-6913, -1025, 6145, -28160, 1535, 10750, -13551, 1024, 1536, -8483
-6913, -1025, 6145, -28160, 1535, 10750, -13807, 1536, 1792, -8227
-5633, -1281, 4353, -28160, 2047, 10750, -14319, 1792, 2048, -7971
-5633, -1281, 4353, -27904, 2047, 10750, -14063, 2560, 2048, -7715
-5633, -1281, 4353, -27904, 1535, 11262, -14319, 2560, 2048, -7459
-5377, -769, 1537, -28416, 1535, 11262, -14319, 2560, 2304, -7203
-5377, -769, 1537, -28416, 1791, 11006, -14319, 2816, 2304, -6947
-6657, -513, -512, -27904, 1535, 11006, -14063, 2560, 2304, -6435
-6657, -513, -512, -27904, 1535, 11006, -14063, 2560, 2304, -6179
-6657, -513, -512, -27904, 1535, 11006, -13807, 2304, 2048, -5923
-6145, -513, -256, -27904, 1535, 11006, -13807, 1792, 2048, -5667
-6145, -513, -256, -27392, 2047, 11006, -13551, 768, 1792, -5155
-6657, 256, -1024, -27392, 1535, 11262, -13551, 512, 1536, -4899
-6657, 256, -1024, -27904, 1535, 11262, -13551, 256, 1536, -4643
-6657, 256, -1024, -27904, 1791, 11262, -13551, 0, 1280, -4387
-5633, 2048, -768, -27648, 1791, 11262, -13807, -12783, 1280, -4131
-5633, 2048, -768, -27648, 2047, 11006, -14063, -13039, 1280, -3875
-5633, 2048, -768, -27392, 2047, 11006, -14063, -13551, 1280, -3619
-5121, 3072, 257, -27392, 1279, 11006, -14575, -13807, 1280, -3363
-5121, 3072, 257, -27648, 2303, 11006, -15343, -14319, 1536, -2851
-4353, 3328, 769, -27648, 2303, 11006, -15343, -14575, 1792, -2595
-4353, 3328, 769, -27648, 1791, 11006, -16111, -14575, 1792, -2339
-4353, 3328, 769, -28160, 1791, 11006, -16111, -15087, 2048, -2083
-4609, 3840, 1, -28160, 2047, 10750, -16367, -15343, 2304, -1827
-4609, 3840, 1, -27648, 2047, 10750, -16367, -15855, 2560, -1571
-4609, 3840, 1, -27648, 2559, 11006, -16367, -16111, 2560, -1315
-5377, 3840, -1280, -28160, 2559, 11006, -16111, -16367, 2816, -1059
-5377, 3840, -1280, -28160, 2047, 10494, -16111, -16367, 3072, -803
-4353, 4352, -2816, -28160, 2559, 10238, -15599, -16623, 3328, -291
-4353, 4352, -2816, -28416, 2559, 10238, -15343, -16367, 3328, -35
-4353, 4352, -2816, -28416, 2303, 10750, -15087, -16367, 3584, 222
-4097, 4096, -4608, -29184, 2303, 9982, -14063, -16111, 3840, 734
-4097, 4096, -4608, -29184, 2303, 9982, -13551, -16367, 4096, 990
-3585, 4608, -4608, -29184, 2815, 10238, -13295, -16367, 4096, 1246
-3585, 4608, -4608, -29440, 2815, 10238, 0, -16367, 4608, 1502
-3585, 4608, -4608, -29440, 1535, 10494, 256, -16367, 4608, 1758
-4353, 5888, -3584, -29952, 1535, 10494, 1024, -16367, 4864, 2014
-4353, 5888, -3584, -29952, 2303, 9982, 1280, -16367, 4864, 2270
-4353, 5888, -3584, -29696, 2303, 9982, 1536, -16367, 5120, 2526
-3841, 6400, -2048, -29696, 1791, 10238, 1792, -16111, 5376, 2782
-3841, 6400, -2048, -30208, 1791, 10238, 2048, -15855, 5632, 3294
-3329, 8704, -768, -30464, 1791, 10238, 2048, -15343, 5888, 3550
-3329, 8704, -768, -30464, 1791, 10238, 2048, -14831, 5888, 3806
-4353, 11264, 513, -30976, 767, 10494, 2048, -14063, 5632, 4318
-4353, 11264, 513, -30976, 767, 10494, 2048, -13551, 5376, 4574
-4353, 11264, 513, -30976, 1279, 10494, 2304, -13295, 5376, 4830
-5377, 11776, -256, -31232, 1279, 10494, 2304, -13039, 4864, 5086
-5377, 11776, -256, -31488, 767, 10750, 2560, 256, 4352, 5598
-6657, 10752, 257, -31488, -2, 10494, 2560, 512, 4096, 5854
-6657, 10752, 257, -31744, -2, 10494, 2304, 512, 3840, 6110
-6657, 10752, 257, -31744, 255, 10494, 2560, 768, 3328, 6366
-6913, 10496, -1024, -31744, 255, 10494, 2304, 768, 3072, 6622
-6913, 10496, -1024, -31744, -258, 11006, 2304, 768, 2816, 6878
-6401, 8704, 513, -31744, -258, 10750, 2048, 256, 2560, 7390
-6401, 8704, 513, -31232, -258, 10750, 2048, -12783, 2304, 7646
-6401, 8704, 513, -31232, -514, 11006, 1536, -13039, 2304, 7902
-4865, 8448, 1793, -31488, -1282, 11006, 1024, -13295, 2048, 8414
-4865, 8448, 1793, -31488, -1282, 11006, 512, -13295, 1792, 8670
-2817, 8704, 1537, -31488, -258, 11006, -13039, -13295, 1792, 9182
-2817, 8704, 1537, -31488, -1538, 11262, -13807, -13551, 1792, 9438
-1793, 8960, 3329, -31744, -1538, 11262, -14575, -13807, 1792, 9694
-1793, 8960, 3329, -31744, -770, 10750, -15087, -13551, 1792, 9950
-1793, 8960, 3329, -31744, -770, 10750, -15855, -14319, 1792, 10206
-1025, 8704, 3329, -31744, -770, 11006, -16623, -14575, 2048, 10462
-1025, 8704, 3329, -31744, -770, 11006, -17135, -15087, 2048, 10718
-1025, 8704, 3329, -31744, -1026, 11006, -17903, -15343, 2048, 10974
-1793, 8960, 2817, -32000, -2, 10494, -18671, -16111, 2304, 11486
-1793, 8960, 2817, -32256, -2, 10494, -18927, -16367, 2560, 11742
-1025, 8192, 1025, -32256, -514, 10750, -19183, -16879, 2816, 11998
-1025, 8192, 1025, -32512, 255, 9982, -19183, -17903, 3072, 12510
-513, 6912, -256, -32512, 255, 9982, -19439, -18159, 3328, 12766
-513, 6912, -256, -32768, 511, 9982, -19183, -18415, 3328, 13278
-1025, 6400, -1024, -32768, 511, 9982, -19183, -18671, 3584, 13534
-1025, 6400, -1024, 32000, 1535, 9214, -18671, -19183, 3072, 14046
-3073, 5376, -1792, 32000, 1535, 9214, -18927, -18927, 2816, 14302
-3073, 5376, -1792, 32000, 1279, 9214, -18927, -18927, 2816, 14558
-3073, 5376, -1792, 31488, 1279, 9214, -18927, -18671, 2560, 14814
-2561, 7424, 513, 30976, 1791, 9214, -19183, -17391, 2048, 15326
-2561, 7424, 513, 30976, 2303, 8702, -19439, -16367, 2048, 15582
-2561, 7680, -256, 30720, 1791, 8702, -19951, -15343, 1792, 16094
-2561, 7680, -256, 30208, 1791, 8702, -19951, -14319, 1792, 16350
-1025, 7168, -1792, 30208, 3071, 8446, -19951, -13295, 1536, 16606
-1025, 7168, -1792, 30464, 3071, 8446, -19951, -12783, 1536, 16862
-1025, 7168, -1792, 30464, 2815, 7934, -19695, -12783, 1536, 17118
-257, 7168, -3072, 30208, 2815, 7934, -19183, 256, 1536, 17374
-257, 7168, -3072, 30208, 3071, 8190, -18671, 768, 1280, 17630
-257, 7168, -3072, 30464, 3071, 8190, -17647, 1536, 1536, 17886
-769, 6656, -5888, 30464, 4351, 7934, -17135, 1536, 2048, 18142
-769, 6656, -5888, 30208, 4351, 7934, -16367, 1280, 2048, 18398
-257, 5376, -7680, 30208, 3071, 8190, -15599, 2048, 2048, 18654
-257, 5376, -7680, 30208, 3071, 8190, -14831, 2048, 2048, 18910
-257, 5376, -7680, 30208, 4095, 7678, -13807, 2048, 2048, 19166
-257, 6912, -7168, 30464, 4095, 7678, -13039, 2048, 2048, 19422
-257, 6912, -7168, 30464, 3583, 8190, 0, 2048, 2304, 19678
-257, 6912, -7168, 30208, 3583, 8190, 512, 2048, 2304, 19934
0, 9728, -4352, 30720, 3583, 7934, 1280, 1792, 2816, 20446
0, 9728, -4352, 30720, 3839, 7934, 1280, 1536, 3328, 20702
256, 11520, 257, 30976, 3071, 8446, 1024, 768, 3840, 21214
256, 11520, 257, 30720, 3071, 8446, 512, 768, 4096, 21470
-513, 11520, 3841, 30720, 3583, 7934, -12783, 1024, 4096, 21726
-513, 11520, 3841, 30720, 3583, 7934, -13551, 1024, 4352, 21982
-513, 11520, 3841, 30720, 3327, 8446, -14063, 256, 4608, 22238
-2561, 10752, 4353, 30720, 3327, 8446, -14831, 512, 4608, 22494
-2561, 10752, 4353, 30976, 2815, 8190, -16623, 1792, 3840, 23006
-4353, 11264, 3841, 30976, 3583, 7934, -17135, 512, 3584, 23262
-4353, 11264, 3841, 30720, 3071, 8190, -18159, -14063, 3072, 23774
-5889, 9216, 2049, 30720, 3071, 8190, -18671, -14063, 3072, 24030
-5889, 9216, 2049, 30720, 3839, 7678, -19183, -13551, 2304, 24286
-5889, 9216, 2049, 30976, 3839, 7678, -19439, -13807, 2304, 24542
-5633, 5120, -768, 30976, 4351, 7934, -19439, -14319, 2048, 24798
-5633, 5120, -768, 30464, 4351, 7934, -19439, -14063, 2048, 25054
-5633, 5120, -768, 30464, 3839, 7678, -19439, -14063, 1536, 25310
-4609, 2816, -2304, 30720, 3839, 7678, -19439, -14063, 1536, 25566
-4609, 2816, -2304, 30720, 5119, 7166, -18927, -14063, 1536, 25822
-4609, 2816, -2304, 30464, 5119, 7166, -18671, -14319, 1536, 26078
-3329, 1536, -4352, 30464, 4863, 7166, -18415, -13551, 1536, 26334
-2049, 1024, -5376, 30208, 5119, 7166, -16879, -13295, 1536, 27102
-2049, 1024, -5376, 30208, 5631, 6910, -16367, -13295, 1536, 27358
-2049, 1024, -5376, 30208, 5631, 6910, -16111, -13039, 1792, 27614
-1793, 1792, -5376, 30208, 5375, 7166, -15599, -13039, 2048, 27870
-1793, 1792, -5376, 30208, 5375, 7166, -15343, 0, 1792, 28126
-1793, 1792, -5376, 30208, 5887, 6654, -14831, 512, 1792, 28382
-2561, 2048, -5120, 30208, 5887, 6654, -14575, 1024, 1792, 28638
-2561, 2048, -5120, 29952, 5631, 7166, -14063, 1536, 1536, 29150
-3585, 2304, -4096, 29952, 5887, 6654, -13807, 1792, 1536, 29406
-3585, 2304, -4096, 30208, 6399, 6654, -13295, 1536, 1536, 29918
-4865, 1536, -3072, 30208, 6399, 6654, -13039, 1280, 1536, 30174
-4865, 1536, -3072, 30208, 5375, 7166, -13039, 1024, 1792, 30430
-4865, 1536, -3072, 30208, 5375, 7166, -13039, 768, 1536, 30686
-6145, 1536, -1536, 30208, 6143, 6910, -13039, 512, 1792, 30942
-6145, 1536, -1536, 30464, 6143, 6910, -13295, 0, 1536, 31198
-6145, 1536, -1536, 30464, 5887, 6910, -13551, -13039, 1536, 31454
-5889, 2304, 1, 30464, 5887, 6910, -13807, -13295, 1280, 31710
-5889, 2304, 1, 30464, 5887, 6654, -14319, -13551, 1024, 31966
-5889, 2304, 1, 30464, 5887, 6654, -15087, -13551, 768, 32222
-3585, 4352, 1537, 30464, 6399, 6654, -15343, -13807, 768, 32478
-3585, 4352, 1537, 30464, 6399, 6654, -16111, -13807, 768, 32734
-3585, 4352, 1537, 30464, 5887, 6654, -16623, -14063, 768, -32546
-1793, 6912, 2305, 29952, 5887, 6654, -17135, -14831, 1024, -32290
-1793, 6912, 2305, 29952, 6655, 6398, -17647, -15599, 1536, -32034
-1793, 6912, 2305, 30464, 6655, 6398, -18159, -15855, 2048, -31778
0, 8448, -1024, 30208, 6143, 6398, -19183, -16879, 3072, -31266
0, 8448, -1024, 30208, 6399, 6398, -19439, -18415, 3840, -31010
-513, 10752, -1280, 30208, 6399, 6398, -19439, -19951, 4608, -30754
-513, 10752, -1280, 29440, 7679, 5886, -19439, -21487, 5632, -30242
1280, 12800, -5120, 29440, 6911, 5886, -19183, -21743, 5888, -29986
1280, 12800, -5120, 28672, 6911, 5886, -18159, -22255, 6400, -29730
1280, 12800, -5120, 28672, 7679, 5118, -17135, -23023, 6656, -29474
3328, 16384, -6912, 28416, 8191, 5374, -15087, -22511, 6912, -28962
4864, 20992, -8192, 27648, 7423, 5118, 0, -21743, 7680, -28450
4864, 20992, -8192, 26624, 7423, 5118, 1280, -21231, 7936, -28194
4864, 20992, -8192, 26624, 8191, 4862, 2560, -20463, 7936, -27938
4608, 23808, -6912, 26112, 8191, 4862, 3584, -19439, 8448, -27682
4608, 23808, -6912, 26112, 7167, 5118, 4864, -18159, 8448, -27426
4608, 23808, -6912, 25088, 7167, 5118, 5632, -17647, 8704, -27170
3584, 24320, -3840, 25088, 7167, 4862, 6656, -16879, 8960, -26914
3584, 24320, -3840, 24832, 7167, 4862, 7424, -16111, 8960, -26658
3584, 24320, -3840, 24832, 6399, 4862, 7936, -15599, 9216, -26402
1024, 25088, -768, 24576, 6399, 4862, 8192, -15087, 9472, -26146
1024, 25088, -768, 23808, 5375, 5374, 9216, -14063, 9472, -25634
256, 24064, 769, 23808, 5375, 5118, 9216, -13807, 9728, -25378
256, 24064, 769, 23808, 5375, 5118, 9472, -13039, 9984, -25122
256, 24064, 769, 23808, 4095, 5630, 9728, -12783, 9984, -24866
-769, 23296, 513, 22784, 4095, 5630, 9728, -12783, 9984, -24610
-769, 23296, 513, 22784, 3839, 5374, 9728, 0, 10240, -24354
-769, 23296, 513, 23296, 3839, 5374, 9216, 0, 9984, -24098
-1537, 24576, 3841, 22528, 3071, 5886, 7936, 0, 9472, -23586
-1537, 24576, 3841, 22528, 1791, 6142, 7168, -12783, 9472, -23330
-1793, 25088, 6145, 22016, 1791, 6142, 6400, -12783, 8960, -23074
-1793, 25088, 6145, 22016, 2047, 6142, 5376, -13039, 8704, -22818
-3585, 25600, 6657, 22272, 767, 6654, 3328, -13295, 8192, -22306
-3585, 25600, 6657, 21248, 767, 6654, 1792, -13551, 7680, -22050
-3585, 25600, 6657, 21248, 511, 6398, 768, -13551, 7424, -21794
-4097, 25856, 6657, 21248, 511, 6398, -13039, -13807, 7424, -21538
-4097, 25856, 6657, 21248, 767, 6142, -13807, -13807, 7168, -21282
-2049, 26368, 2561, 21248, 255, 6398, -15343, -14063, 6912, -20770
-2049, 26368, 2561, 20480, 255, 6398, -15855, -14319, 6400, -20514
-2817, 27392, -512, 20736, 511, 5886, -16367, -14319, 5632, -20002
-2817, 27392, -512, 20736, 255, 6398, -16111, -14319, 5376, -19746
-3585, 26624, -5120, 20224, 511, 5886, -15855, -14575, 4352, -19234
-3585, 26624, -5120, 19968, 511, 5886, -15599, -14575, 4096, -18978
-4609, 23296, -7680, 19968, 1023, 5630, -15087, -14831, 3072, -18466
-4609, 23296, -7680, 19968, 255, 5886, -14575, -15087, 2816, -18210
-4609, 23296, -7680, 19200, 255, 5886, -14319, -15343, 2560, -17954
-4097, 22528, -7424, 19200, 1023, 5630, -14063, -15343, 2048, -17698
-4097, 22528, -7424, 19968, 1023, 5630, -13551, -15343, 1792, -17442
-3585, 21504, -8192, 19200, 255, 5630, -13039, -15087, 1280, -16930
-3585, 21504, -8192, 19200, 511, 5374, 0, -14575, 768, -16674
-3585, 21504, -8192, 18944, 511, 5374, 0, -14319, 512, -16418
-1537, 19456, -6400, 18944, 767, 5630, 512, -13807, 0, -15906
-1537, 19456, -6400, 18944, -258, 5886, 512, -13807, 0, -15650
-1281, 17408, -3840, 18688, -258, 5886, 768, -13807, -13039, -15394
-1281, 17408, -3840, 19200, 255, 5886, 512, -13807, -13295, -14882
-1281, 15872, -2560, 19200, 511, 6142, 768, -14063, -13551, -14626
-1281, 15872, -2560, 18688, 511, 6142, 512, -14063, -13807, -14370
-1281, 15872, -2560, 18688, -258, 5630, 0, -14575, -13807, -14114
-257, 14592, 1, 18432, -258, 5630, 0, -14831, -14063, -13858
-257, 14592, 1, 18432, 511, 5886, -12783, -15087, -14319, -13602
-257, 14592, 1, 18944, 511, 5886, -13295, -15343, -14319, -13346
0, 13568, 2305, 18944, -514, 5886, -13551, -15855, -14575, -13090
0, 13568, 2305, 18176, 255, 5630, -14319, -16367, -14575, -12578
2048, 12032, 4097, 18688, 255, 5630, -14575, -16623, -14319, -12322
2048, 12032, 4097, 18432, -2, 5886, -15343, -16879, -14319, -11810
3584, 10496, 4609, 18432, -258, 5886, -15599, -16879, -14063, -11554
3584, 10496, 4609, 18176, -258, 5886, -15855, -17135, -13807, -11298
3584, 10496, 4609, 18176, 511, 5630, -16367, -16879, -13807, -11042
4096, 8704, 5633, 18432, -2, 5630, -16879, -16879, -13551, -10530
4096, 8704, 5633, 18176, -2, 5630, -16879, -16879, -13551, -10274
4352, 7424, 4609, 18176, 255, 5630, -17135, -16623, -13295, -10018
4352, 7424, 4609, 17664, 255, 5630, -17135, -16367, -13551, -9762
4352, 7424, 4609, 17664, 1023, 5630, -17135, -16111, -13295, -9506
5888, 7424, 3329, 17664, 511, 5886, -16879, -15343, -13039, -8994
5888, 7424, 3329, 17664, 511, 5886, -16623, -14831, -13039, -8738
6144, 8192, 2305, 17664, 1535, 5630, -16367, -14319, -12783, -8482
6144, 8192, 2305, 17920, 1535, 5630, -16111, -13807, 0, -8226
6144, 8192, 2305, 17920, 1535, 5886, -15855, -13039, 256, -7970
6656, 7680, 513, 17408, 1535, 5886, -15599, 0, 512, -7714
6656, 7680, 513, 17664, 1535, 5630, -14831, 768, 1280, -7202
6912, 8448, 2049, 17664, 2047, 5630, -14575, 1280, 1792, -6946
6912, 8448, 2049, 17920, 2047, 5630, -14319, 1792, 2304, -6690
6912, 8448, 2049, 17920, 1535, 5886, -14063, 2304, 2816, -6434
6656, 8448, 1025, 17664, 1535, 5886, -13807, 2816, 3328, -6178
6656, 8448, 1025, 17664, 2047, 5886, -13551, 3072, 3840, -5922
6656, 8448, 1025, 18176, 2047, 5886, -13295, 3584, 4352, -5666
5888, 8192, -256, 18176, 2047, 6142, -12783, 4096, 4864, -5410
5888, 8192, -256, 17920, 2047, 6142, -13039, 4352, 5376, -5154
5888, 8192, -256, 17920, 2047, 5886, 0, 4352, 5632, -4898
3328, 6912, 257, 18176, 2047, 5886, 512, 4352, 5888, -4642
3328, 6912, 257, 18432, 2047, 6142, 1536, 4096, 6400, -4130
768, 5888, -2560, 18432, 1023, 6654, 2048, 3584, 6400, -3874
768, 5888, -2560, 18176, 1023, 6654, 2560, 3584, 6656, -3618
768, 5888, -2560, 18176, 1791, 6654, 3328, 3328, 6912, -3362
0, 5632, -4352, 18688, 1279, 7166, 4352, 3072, 6912, -2850
0, 5632, -4352, 18688, 1279, 7166, 5120, 3072, 6912, -2594
-2049, 4864, -1024, 18432, 511, 7166, 5888, 3328, 6656, -2082
-2049, 4864, -1024, 18432, 767, 7422, 5888, 3328, 6400, -1826
-3073, 2816, 257, 18688, 767, 7422, 6144, 3840, 6144, -1570
-3073, 2816, 257, 18688, -258, 8190, 6400, 3840, 5888, -1314
-3073, 2816, 257, 18432, -258, 8190, 6400, 4096, 5632, -1058
-4353, 1792, 769, 18432, -258, 7934, 6656, 4352, 5632, -802
-4353, 1792, 769, 19200, -258, 7934, 6656, 4608, 5376, -546
-4353, 1792, 769, 19200, -770, 8446, 6400, 4608, 5120, -290
-5633, 768, 2049, 18944, -770, 8446, 6144, 4608, 5120, -34
-5633, 768, 2049, 18944, -1538, 8446, 6144, 4608, 5120, 223
-7425, 256, 1537, 19456, -1282, 8702, 5632, 4864, 4608, 735
-7425, 256, 1537, 19456, -1282, 8702, 5376, 4352, 4352, 991
-7425, 256, 1537, 19456, -2306, 9214, 5120, 4352, 4352, 1247
-7937, 256, 1537, 19456, -2306, 9214, 4864, 3584, 3840, 1759
-7937, 256, 1537, 19712, -2306, 9214, 4864, 3328, 3840, 2015
-8449, 768, 513, 19712, -2306, 9726, 4864, 3072, 3328, 2271
-8449, 768, 513, 19968, -2306, 9726, 4608, 2816, 3328, 2527
-8193, -1, 1, 19968, -3330, 9982, 4608, 2560, 2560, 3039
-8193, -1, 1, 19968, -3074, 10238, 4608, 2560, 2048, 3295
-8193, -1, 1, 20224, -3074, 10238, 4608, 2304, 1536, 3551
-7937, -1537, 1, 20224, -4098, 10494, 4352, 2048, 1280, 3807
-7937, -1537, 1, 19968, -4098, 10494, 4352, 2048, 512, 4063
-7937, -1537, 1, 19968, -3842, 10494, 4352, 1792, 256, 4319
-7937, -4353, 257, 20480, -3842, 10494, 4352, 1536, -12783, 4575
-7937, -4353, 257, 20480, -3842, 10750, 4608, 1024, -13295, 4831
-7937, -4353, 257, 20480, -3842, 10750, 4352, 512, -13807, 5087
-7681, -5633, 769, 20480, -4610, 11006, 4352, 0, -14319, 5343
-7681, -5633, 769, 20736, -4610, 11006, 4352, -12783, -14831, 5599
-7681, -5633, 769, 20736, -4098, 11262, 4352, -13551, -15343, 5855
-6657, -4865, 1281, 20736, -4098, 11262, 4096, -13807, -15599, 6111
-6657, -4865, 1281, 20736, -4866, 12030, 3840, -14575, -16111, 6367
-6657, -4865, 1281, 20736, -4866, 12030, 3584, -15087, -16367, 6623
-6145, -5377, 1025, 20736, -4866, 11262, 3072, -15855, -16623, 6879
-6145, -5377, 1025, 20736, -4866, 11262, 2816, -16367, -16623, 7135
-6145, -5377, 1025, 20736, -4610, 11518, 2304, -17135, -16879, 7391
-5121, -6913, 769, 20992, -4610, 11518, 2304, -17647, -16879, 7647
-5121, -6913, 769, 20992, -5634, 11774, 2048, -18415, -16879, 7903
-5121, -6913, 769, 20736, -5634, 11774, 2304, -18927, -16879, 8159
-4353, -9473, 769, 20736, -5122, 11262, 2048, -19439, -16879, 8671
-4353, -9473, 769, 20736, -5122, 11774, 2560, -19695, -17135, 8927
-2561, -12289, 257, 20224, -5122, 11774, 2560, -19695, -16879, 9183
-2561, -12289, 257, 20224, -5378, 12030, 2816, -19439, -17135, 9439
-2561, -12289, 257, 19968, -5378, 12030, 2816, -19183, -17135, 9695
-1025, -15361, 257, 19968, -4866, 11774, 3072, -18927, -17135, 9951
-1025, -15361, 257, 20224, -4866, 11774, 3584, -18671, -17135, 10207
-1025, -15361, 257, 20224, -5890, 12030, 3584, -18671, -17135, 10463
0, -17153, 257, 19712, -5890, 12030, 4096, -18159, -16879, 10719
0, -17153, 257, 19712, -5378, 11774, 4096, -17903, -16623, 10975
0, -17153, 257, 19712, -5378, 11774, 4352, -17391, -16623, 11231
512, -18689, 1793, 19712, -5890, 12030, 4608, -16367, -16367, 11743
512, -18689, 1793, 19712, -6402, 12286, 4608, -15855, -16111, 11999
512, -20481, 2305, 19712, -6402, 12286, 4608, -15343, -16111, 12255
512, -20481, 2305, 19712, -6146, 12286, 4608, -14831, -16111, 12511
512, -20481, 2305, 19712, -6146, 12286, 4608, -14319, -15855, 12767
1280, -22273, 2305, 19456, -6658, 12542, 4352, -13807, -15855, 13279
1536, -20993, 3585, 19456, -6402, 12286, 3840, -13807, -15855, 13535
1536, -20993, 3585, 20224, -7170, 12798, 3072, -13295, -15855, 14047
1536, -23809, 4865, 19456, -7170, 12798, 3072, -13039, -15855, 14303
1536, -23809, 4865, 19456, -7170, 12798, 3328, -13039, -15855, 14559
3072, -30721, 2049, 19968, -6914, 12798, 3840, -13551, -15087, 15071
3072, -30721, 2049, 19968, -6914, 12798, 3840, -14063, -14831, 15327
3072, -30721, 2049, 19968, -8194, 13054, 3840, -13807, -14319, 15583
5376, -28417, 1537, 19712, -7682, 13054, 3328, -13295, -13551, 16095
5376, -28417, 1537, 20480, -7682, 13054, 2816, -13295, -13039, 16351
6656, -27393, 5377, 20480, -7938, 13566, 2304, -13807, 256, 16607
6656, -27393, 5377, 19968, -7938, 13566, 1792, -14063, 1024, 16863
6656, -27393, 5377, 19968, -8194, 13566, 768, -14319, 1536, 17119
6912, -26881, 9473, 19968, -8194, 13566, 0, -14575, 2048, 17375
6912, -26881, 9473, 19968, -7682, 13310, -13807, -15087, 2560, 17631
4864, -25601, 7937, 19968, -8706, 13566, -15599, -15087, 3584, 18143
4864, -25601, 7937, 19456, -8706, 13566, -16111, -15087, 3840, 18399
4864, -25601, 7937, 19456, -7938, 13054, -15855, -15343, 4352, 18655
3328, -28929, 3841, 19456, -7938, 13054, -15599, -15855, 4608, 18911
3328, -28929, 3841, 19456, -7682, 13310, -15343, -16623, 5120, 19167
3328, -28929, 3841, 19456, -7682, 13310, -14831, -16879, 5120, 19423
3072, -26113, -256, 19456, -8194, 13310, -14319, -16879, 5376, 19679
3072, -26113, -256, 18688, -8194, 13310, -13807, -16879, 5376, 19935
3072, -26113, -256, 18688, -7938, 13054, -13039, -16367, 5376, 20191
2304, -23297, -4096, 18688, -7938, 13054, 512, -16111, 5376, 20447
2304, -23297, -4096, 18688, -8450, 13310, 1024, -16111, 5120, 20703
0, -18433, -1024, 18176, -8450, 13054, 1792, -16367, 4608, 21215
0, -18433, -1024, 17664, -8450, 13054, 2048, -16111, 4352, 21471
0, -18433, -1024, 17664, -8962, 13054, 2304, -16111, 3840, 21727
-2049, -18177, 4097, 17408, -8962, 13054, 2560, -15855, 3584, 21983
-2049, -18177, 4097, 17408, -9218, 13566, 2816, -15855, 3328, 22239
-1793, -16385, 6145, 17152, -8706, 13054, 2048, -15087, 2560, 22751
-1793, -16385, 6145, 16896, -8706, 13054, 1536, -14575, 2304, 23007
-1793, -16385, 6145, 16896, -9730, 13310, 512, -14319, 2048, 23263
-1537, -12801, 7937, 16640, -9474, 13054, -13807, -13551, 1536, 23775
-1537, -12801, 7937, 16384, -9474, 13054, -14575, -13295, 1280, 24031
-2049, -9473, 9217, 16384, -9218, 13054, -15343, -13295, 1024, 24287
-2049, -9473, 9217, 16640, -9218, 13054, -16367, -13551, 768, 24543
-2817, -8193, 7681, 16384, -9986, 13310, -18159, -13807, 0, 25055
-2817, -8193, 7681, 16384, -8962, 12542, -18671, -14063, -13039, 25311
-2817, -8193, 7681, 16640, -8962, 12542, -19183, -14063, -13295, 25567
-3329, -7169, 3841, 16384, -9218, 12798, -19439, -15087, -14063, 26079
-3841, -7169, 2049, 16384, -8962, 12542, -18415, -16623, -14575, 26591
-3841, -7169, 2049, 16384, -8194, 12030, -18159, -17135, -15087, 26847
-3585, -5121, 257, 16384, -8962, 12030, -17391, -17903, -16111, 27359
-3585, -5121, 257, 16128, -8962, 12030, -17135, -18159, -16367, 27615
-3585, -5121, 257, 16128, -7170, 11518, -16879, -18159, -16623, 27871
-1793, -3585, -512, 16128, -7170, 11518, -16623, -18671, -16879, 28127
-1793, -3585, -512, 16128, -7682, 11774, -16367, -18927, -17391, 28383
-1281, -3329, 1281, 15872, -7682, 11262, -15855, -19695, -17903, 28895
-1281, -3329, 1281, 15616, -7682, 11262, -15343, -19951, -17903, 29151
-1281, -3329, 1281, 15616, -6914, 11006, -15087, -19951, -17647, 29407
1280, -3329, 2305, 15616, -6914, 11006, -14575, -19951, -17647, 29663
1280, -3329, 2305, 15616, -7938, 11006, -14575, -19695, -17391, 29919
1280, -3329, 2305, 14848, -7938, 11006, -14575, -19439, -17391, 30175
3840, -1025, 6657, 14848, -7170, 10750, -15343, -18415, -16879, 30687
3840, -1025, 6657, 14848, -7170, 10750, -15855, -17903, -16623, 30943
2304, 256, 10241, 15104, -7426, 10494, -17391, -17135, -15855, 31455
2304, 256, 10241, 14592, -7426, 10494, -18159, -16879, -15855, 31711
1792, 1024, 13313, 14592, -6146, 9982, -18927, -16623, -15599, 31967
1792, 1024, 13313, 14848, -6914, 10238, -20463, -15599, -15343, 32479
2048, 1280, 10497, 14336, -6914, 10238, -20975, -15343, -15343, 32735
2560, 2816, 5377, 14848, -5634, 9470, -21999, -14063, -15599, -32033
2560, 2816, 5377, 14336, -5634, 9470, -21999, -13807, -15599, -31777
2560, 2816, 5377, 14336, -5378, 9214, -21999, -14063, -15599, -31521
3328, 3584, 1281, 14336, -4354, 8446, -21743, -14575, -15855, -31009
3328, 3584, 1281, 14848, -4354, 8446, -21487, -15087, -15599, -30753
3072, 5120, -1280, 14848, -4354, 8702, -21231, -15343, -15855, -30497
3072, 5120, -1280, 14592, -4354, 8702, -20719, -16111, -15855, -30241
3072, 5120, -1280, 14592, -3842, 7678, -20463, -16623, -16111, -29985
4096, 4096, -3840, 14336, -3074, 7166, -19439, -18159, -16111, -29473
4096, 4096, -3840, 14336, -3074, 7166, -18927, -18671, -15855, -29217
5888, 4096, -2816, 14336, -3330, 7422, -18159, -19183, -15599, -28961
5888, 4096, -2816, 14080, -3330, 7422, -17903, -19695, -15599, -28705
7936, 5376, -1280, 13824, -2306, 6910, -17135, -20463, -14831, -28193
7936, 5376, -1280, 13824, -2562, 6910, -16879, -20719, -14319, -27937
7936, 5376, -1280, 13568, -2562, 6910, -16879, -20975, -13807, -27681
8960, 7168, -768, 13568, -2050, 6142, -16623, -21231, -13295, -27425
8960, 7168, -768, 13056, -2050, 6142, -16367, -21231, -12783, -27169
8960, 7168, -768, 13056, -1794, 6398, -16111, -21231, 256, -26913
9728, 6912, 1, 12544, -1794, 6398, -15855, -20975, 1024, -26657
9728, 6912, 1, 12288, -2562, 6142, -15599, -19951, 2304, -26145
10240, 7680, -768, 12288, -1538, 5374, -15343, -18927, 2816, -25889
10240, 7680, -768, 12288, -1538, 5374, -14831, -18159, 3328, -25633
10240, 7680, -768, 12288, -1794, 5374, -14575, -16879, 3584, -25377
8960, 9728, 257, 11520, -1794, 5374, -14063, -15855, 3840, -25121
8960, 9728, 257, 11520, -1538, 5118, -13807, -14319, 4096, -24865
8960, 9728, 257, 11008, -1538, 5118, -13039, -13039, 4096, -24609
6656, 10752, 257, 11008, -1282, 5374, 0, 768, 3840, -24353
6656, 10752, 257, 10752, -1282, 5374, 0, 2048, 3840, -24097
6656, 10752, 257, 10752, -2050, 5118, 768, 3328, 3328, -23841
2816, 10496, -256, 10496, -2050, 5118, 768, 4352, 2816, -23585
2816, 10496, -256, 10496, -1538, 5118, 1024, 5376, 2560, -23329
2816, 10496, -256, 11264, -1538, 5118, 1024, 6400, 2048, -23073
1280, 11264, -768, 11264, -1794, 5630, 1024, 7168, 1536, -22817
1280, 11264, -768, 11264, -1794, 5630, 1024, 7680, 1024, -22561
1280, 11264, -768, 11264, -2050, 5630, 1024, 8448, 256, -22305
1024, 12544, -3584, 11776, -2050, 5630, 1024, 8704, -12783, -22049
1024, 12544, -3584, 11776, -1026, 5630, 768, 8704, -13295, -21793
1024, 12544, -3584, 12288, -1026, 5630, 768, 8704, -13551, -21537
1792, 13568, -4352, 12288, -2306, 5886, 512, 8192, -13807, -21281
1792, 13568, -4352, 13056, -2306, 5886, 512, 7936, -13807, -21025
4608, 14336, -5376, 14080, -1794, 5374, 256, 6400, -13807, -20513
4608, 14336, -5376, 14080, -1794, 6142, 0, 5632, -13551, -20257
4608, 14336, -5376, 13824, -1794, 6142, 0, 4864, -13295, -20001
6912, 14592, -7936, 13824, -2050, 5886, -12783, 3840, -13039, -19745
6912, 14592, -7936, 14848, -2050, 5886, 0, 2816, 0, -19489
6912, 14592, -7936, 14848, -1538, 6142, -12783, 1792, 512, -19233
7680, 15360, -8448, 15104, -1538, 6142, -12783, 1024, 1024, -18977
7680, 15360, -8448, 15104, -2050, 6654, -12783, 0, 1536, -18721
7680, 15360, -8448, 14848, -2050, 6654, 0, -13295, 2048, -18465
7168, 15616, -9984, 15360, -1794, 6398, 256, -14831, 2560, -17953
7168, 15616, -9984, 15360, -1538, 6654, 512, -15343, 2816, -17697
7680, 15616, -10752, 15360, -1538, 6654, 256, -15599, 3328, -17441
7680, 15616, -10752, 15360, -2050, 7166, 1536, -16367, 2816, -17185
7680, 15616, -10752, 15104, -2050, 7166, -13039, -17391, 1024, -16929
-11777, 17152, 3841, 15104, -1538, 6910, -15855, -16879, 256, -16673
-11777, 17152, 3841, 15360, -2306, 7678, -17903, -18671, -13295, -16161
-8705, 19200, 6657, 14592, -2306, 7678, -19439, -19439, -14063, -15905
-8705, 19200, 6657, 14592, -1794, 7166, -20463, -20207, -14831, -15649
-10753, 18176, 5121, 14848, -1026, 7422, -21231, -21999, -16367, -15137
-10753, 18176, 5121, 14336, -1026, 7422, -20975, -21999, -16879, -14881
-10753, 18176, 5121, 14336, -1538, 7422, -20975, -21999, -17391, -14625
-10241, 18688, 1, 14080, -1538, 7422, -20719, -21487, -17647, -14369
-10241, 18688, 1, 14080, -514, 7422, -20463, -20975, -18415, -14113
-10241, 18688, 1, 14336, -514, 7422, -19951, -20207, -18671, -13857
-6145, 18944, -3072, 13824, -770, 7934, -19439, -19695, -19695, -13345
-6145, 18944, -3072, 13824, -2, 7422, -18159, -21487, -18927, -13089
-8193, 16640, -1536, 13824, -2, 7422, -17135, -18671, -19695, -12833
-8193, 16640, -1536, 13824, 255, 7678, -17391, -13039, -21231, -12577
-8193, 16640, -1536, 13568, 255, 7678, -17135, 1280, -21999, -12321
-1025, 20992, -13824, 13568, -514, 8190, -16623, 0, -21999, -12065
-1025, 20992, -13824, 13824, -514, 8190, -15855, -15087, -21743, -11809
-1025, 20992, -13824, 13824, 255, 7934, -15343, -16879, -21231, -11553
-6401, 24576, 1281, 14336, 255, 7934, -15343, -17391, -21487, -11297
-6401, 24576, 1281, 14592, -258, 8446, -15343, -13551, -22255, -10785
1280, 22016, -12032, 14592, -2, 8446, -15087, 768, -22511, -10529
1280, 22016, -12032, 14848, -2, 8958, -14319, 256, -22511, -10017
512, 23552, -7424, 15360, -2, 8958, -13551, -13295, -21999, -9761
512, 23552, -7424, 15360, -1282, 9214, -12783, -14063, -21999, -9505
512, 23552, -7424, 15360, -1282, 9214, 0, -14063, -21743, -9249
3584, 27392, -8448, 15360, -514, 9726, 512, -14063, -21487, -8993
3584, 27392, -8448, 15872, -514, 9726, 1280, -14319, -20975, -8737
10240, 29184, -8960, 16128, -1282, 9982, 1792, 1536, -20719, -8225
10240, 29184, -8960, 16128, -1794, 10238, 1792, 1280, -20463, -7969
10240, 29184, -8960, 16384, -1794, 10238, 1792, -12783, -19695, -7713
9984, -28928, 257, 16384, -1538, 10494, 1536, -14319, -18927, -7457
9984, -28928, 257, 16896, -1538, 10494, 1280, -14831, -18159, -7201
9984, -28928, 257, 16896, -2818, 10750, 768, -14063, -17903, -6945
14080, -27648, -1024, 16640, -2818, 10750, 0, -13295, -16367, -6433
14080, -27648, -1024, 16896, -2818, 10750, -13039, -13551, -15599, -6177
16128, -27904, -1024, 16896, -3330, 11518, -14063, -14831, -13551, -5665
16128, -27904, -1024, 16896, -3586, 11262, -14575, -16111, 0, -5409
13824, -25856, 1281, 17152, -3586, 11262, -15087, -17135, 1280, -5153
13824, -25856, 1281, 16896, -3330, 11262, -16111, -17391, 3328, -4641
12288, -26368, -3328, 16896, -4354, 11518, -16111, -17391, 4352, -4385
12288, -26368, -3328, 16384, -4354, 11518, -16367, -17135, 4864, -4129
12288, -26368, -3328, 16384, -3842, 11518, -16111, -17135, 5376, -3873
9216, -26880, -4608, 16128, -3842, 11518, -15855, -17391, 5888, -3617
9216, -26880, -4608, 16128, -4098, 11774, -15599, -17903, 6400, -3361
4352, -25344, -5120, 15360, -4354, 11518, -14575, -18671, 6912, -2849
4352, -25344, -5120, 15104, -4354, 11518, -14063, -18415, 6912, -2593
4352, -25344, -5120, 15104, -3842, 11518, -13551, -18159, 6656, -2337
1024, -24832, -6400, 14592, -3842, 11518, -12783, -18159, 6400, -2081
1024, -24832, -6400, 14592, -4866, 11518, 256, -17903, 5888, -1825
1024, -24832, -6400, 13568, -4866, 11518, 768, -18159, 5632, -1569
-1793, -24064, -3328, 13568, -4610, 11262, 1024, -18415, 5120, -1313
-1793, -24064, -3328, 13824, -4610, 11262, 1280, -18671, 4608, -1057
-1793, -24064, -3328, 13824, -4610, 11774, 1280, -18671, 3840, -801
-5633, -23296, -768, 13312, -4610, 11774, 1536, -18415, 3072, -545
-5633, -23296, -768, 13312, -5122, 11518, 1280, -18159, 2560, -289
-5633, -23296, -768, 12544, -5122, 11518, 1024, -17391, 1792, -33
-5377, -26368, 2305, 12544, -4866, 11262, 512, -16623, 1024, 224
-5377, -26368, 2305, 12800, -4866, 11262, 256, -16367, 512, 480
-5377, -26368, 2305, 12800, -5378, 11518, 0, -16111, -12783, 736
-3073, -27904, 4353, 12288, -5378, 11518, -13039, -15599, -13295, 992
-3073, -27904, 4353, 12288, -4866, 11006, -13551, -15087, -13551, 1248
-3073, -27904, 4353, 12288, -4866, 11006, -14063, -14831, -13551, 1504
1792, -28928, 4353, 12288, -4354, 11262, -14319, -14319, -13551, 1760
1792, -28928, 4353, 12544, -4354, 11262, -14831, -14063, -13295, 2016
1792, -28928, 4353, 12544, -4610, 11006, -15343, -14063, -13039, 2272
7424, -30208, 3329, 12288, -4610, 11006, -15599, -14063, -12783, 2528
7424, -30208, 3329, 12288, -3330, 10750, -15855, -14575, 256, 2784
10240, -32000, 2561, 12544, -3330, 10494, -16623, -15087, 1536, 3296
10240, -32000, 2561, 12032, -3330, 10494, -16879, -15343, 1792, 3552
10240, -32000, 2561, 12032, -3074, 9982, -17135, -15087, 2560, 3808
13312, 31488, 1, 12544, -3074, 9982, -17391, -14831, 3072, 4064
13312, 31488, 1, 12544, -2050, 9726, -17647, -14575, 3584, 4320
13312, 31488, 1, 12288, -2050, 9726, -17647, -14319, 4096, 4576
13824, 29696, -3072, 12032, -1794, 9470, -17647, -13295, 5120, 5088
13824, 29696, -3072, 12032, -770, 8958, -17391, 0, 5888, 5344
14848, 29440, -5376, 12032, -770, 8958, -17135, 768, 6400, 5600
14848, 29440, -5376, 11264, -770, 8702, -16623, 2560, 7680, 6112
14080, 27136, -7680, 11264, -258, 8446, -16367, 3584, 8192, 6368
14080, 27136, -7680, 11776, -258, 8446, -15855, 4352, 8192, 6624
14080, 27136, -7680, 11776, 767, 8190, -15599, 5120, 8448, 6880
9472, 23296, -8704, 11776, 767, 8190, -15087, 5888, 7936, 7136
9472, 23296, -8704, 11776, 255, 7934, -14575, 6656, 7680, 7392
3584, 20224, -11264, 11520, 255, 7934, -14063, 7424, 7168, 7648
3584, 20224, -11264, 11520, 1279, 7422, -13551, 8192, 6144, 7904
3584, 20224, -11264, 12032, 1279, 7422, -13039, 8704, 5376, 8160
-1, 16896, -11264, 12032, 1279, 7678, 768, 9728, 3328, 8672
-1, 16896, -11264, 12032, 1279, 7166, 1024, 9984, 2048, 8928
-1025, 15616, -10496, 12544, 1279, 7166, 1536, 10240, 1280, 9184
-1025, 15616, -10496, 12544, 1791, 7166, 1792, 10240, 512, 9440
-1025, 15616, -10496, 13312, 1791, 7166, 2048, 9984, 0, 9696
768, 15360, -11264, 13568, 2047, 6910, 2560, 8704, -13551, 10464
4096, 14336, -11264, 14080, 2047, 6910, 2816, 8192, -13295, 10720
4096, 14336, -11264, 14080, 1791, 6654, 3328, 7680, -13039, 10976
9984, 10496, -11008, 14848, 1791, 6398, 4096, 6400, -12783, 11488
9984, 10496, -11008, 15104, 1791, 6398, 4608, 5888, 0, 11744
13312, 6912, -7680, 15360, 2303, 6654, 4352, 5632, 256, 12256
13312, 6912, -7680, 15360, 1791, 6398, 4096, 5632, 0, 12512
13312, 6912, -7680, 15616, 1791, 6398, 3584, 5376, 0, 12768
12544, 5120, -1792, 15616, 2047, 6142, 3072, 5120, 256, 13024
12544, 5120, -1792, 16640, 2047, 6142, 2304, 4864, 256, 13280
12544, 5120, -1792, 16640, 1535, 6142, 1536, 4096, 512, 13536
11776, 5376, 2049, 16128, 1279, 6142, 0, 2816, 1024, 14048
11776, 5376, 2049, 16640, 1279, 6142, -13295, 2048, 1792, 14304
11264, 7680, 4097, 16640, 2047, 5630, -14319, 1536, 1792, 14560
11264, 7680, 4097, 16640, 2047, 5630, -15087, 1024, 2304, 14816
9728, 8704, 2305, 16640, 1791, 5886, -16623, 0, 2560, 15328
9728, 8704, 2305, 16640, 2047, 5374, -17391, -12783, 3072, 15584
9728, 8704, 2305, 16384, 2047, 5374, -17903, -13039, 3072, 15840
7168, 8704, 257, 16384, 2559, 5118, -18159, -13551, 3072, 16096
7168, 8704, 257, 16128, 2559, 5118, -18671, -13807, 3072, 16352
7168, 8704, 257, 16128, 2047, 4862, -18671, -14575, 3328, 16608
5120, 9984, -3328, 15872, 2047, 4862, -19183, -14575, 3328, 16864
5120, 9984, -3328, 15872, 3071, 4606, -19183, -15087, 3328, 17120
5120, 9984, -3328, 15616, 3071, 4606, -19183, -15599, 3072, 17376
2816, 9984, -6912, 15616, 3071, 4606, -18927, -15855, 2816, 17632
2816, 9984, -6912, 15360, 3071, 4606, -18927, -16111, 2560, 17888
2816, 9984, -6912, 15360, 3327, 3838, -18415, -15855, 2560, 18144
2304, 9984, -7936, 15104, 3327, 3838, -17903, -15855, 2048, 18400
2304, 9984, -7936, 15104, 3583, 3838, -17135, -15855, 1792, 18656
2816, 8192, -7680, 14592, 3583, 3582, -15855, -15599, 1280, 19168
2816, 8192, -7680, 14336, 3583, 3582, -15087, -15087, 1024, 19424
2816, 8192, -7680, 14336, 4351, 3070, -14575, -14575, 768, 19680
3840, 6656, -7424, 14592, 4351, 3070, -14063, -14319, 768, 19936
3840, 6656, -7424, 14592, 3839, 3582, -13551, -13807, 512, 20192
3840, 6656, -7424, 13824, 3839, 3582, -13039, -13551, 1024, 20448
3840, 6400, -4864, 13824, 3839, 3070, -12783, -13551, 1024, 20704
3840, 6400, -4864, 14080, 3839, 3070, 0, -13295, 1280, 20960
3840, 6400, -4864, 14080, 4095, 3326, 0, -13039, 1280, 21216
4096, 7424, -3840, 13824, 4095, 3326, 256, -12783, 1536, 21472
4096, 7424, -3840, 13824, 3071, 3582, 256, 256, 1792, 21728
4096, 7424, -3840, 13568, 3071, 3582, 0, 768, 1792, 21984
3840, 7936, -5632, 13568, 3583, 3070, 0, 1024, 2048, 22240
3840, 7936, -5632, 13824, 3583, 3070, 0, 1024, 2304, 22496
3840, 7936, -5632, 13824, 3327, 3326, -12783, 1280, 2304, 22752
4096, 8704, -4864, 13568, 3327, 3326, 0, 1024, 2560, 23008
4096, 8704, -4864, 13568, 3071, 3070, 0, 1024, 2560, 23264
4096, 8704, -4864, 14080, 3071, 3070, 256, 768, 2816, 23520
5120, 7424, -5632, 14080, 3583, 3070, 512, 768, 2560, 23776
5120, 7424, -5632, 13568, 3583, 3070, 512, 768, 2560, 24032
5120, 7424, -5632, 13568, 2559, 4094, 768, 512, 2560, 24288
3584, 5888, -6144, 13056, 2559, 4094, 1024, 256, 2304, 24544
3584, 5888, -6144, 13056, 2815, 3070, 1280, -12783, 2048, 24800
3584, 5888, -6144, 13824, 2815, 3070, 1280, -13039, 2048, 25056
2304, 5120, -2816, 13824, 2559, 3838, 1536, -13551, 1536, 25312
2304, 5120, -2816, 13568, 2559, 3838, 1536, -13807, 1536, 25568
2304, 4096, -2048, 12800, 2303, 4094, 1280, -14831, 1024, 26080
2304, 4096, -2048, 12800, 2303, 3838, 1280, -15343, 768, 26336
2304, 4096, -2048, 13056, 2303, 3838, 768, -15855, 512, 26592
1280, 4608, 513, 13056, 1535, 4606, 512, -16367, 512, 26848
1280, 4608, 513, 12544, 1535, 4606, 0, -17135, 512, 27104
1280, 4608, 513, 12544, 2303, 4094, -13039, -17903, 256, 27360
512, 5888, 2561, 13056, 2303, 4094, -13551, -18159, 256, 27616
512, 5888, 2561, 13056, 2047, 4606, -14319, -18671, 512, 27872
512, 5888, 2561, 12288, 2047, 4606, -14831, -18927, 256, 28128
1024, 6912, 2305, 12288, 1535, 4606, -15343, -19183, 256, 28384
1024, 6912, 2305, 11776, 1535, 4606, -15599, -18927, 256, 28640
1024, 6912, 2305, 11776, 2303, 4094, -16111, -18671, 0, 28896
1536, 7424, 1281, 12032, 2047, 4606, -16367, -17903, -12783, 29408
1536, 7424, 1281, 11008, 2047, 4606, -16111, -17391, -13039, 29664
2560, 5632, 513, 11008, 2559, 4350, -15855, -16623, -13551, 29920
2560, 5632, 513, 11520, 2559, 4350, -15343, -16111, -13807, 30176
2560, 5632, 513, 11520, 3071, 4350, -14831, -15343, -14319, 30432
2304, 768, 1025, 11264, 3071, 4350, -14575, -14831, -15087, 30688
2304, 768, 1025, 11264, 2559, 4350, -14063, -14319, -15855, 30944
2304, 768, 1025, 11264, 2559, 4350, -14063, -14063, -16111, 31200
2304, -2049, 2049, 11264, 3327, 4094, -13807, -13295, -17391, 31712
2304, -2049, 2049, 11264, 2559, 4606, -14063, -13295, -17903, 31968
3328, -3585, 3329, 11008, 2559, 4606, -13807, -13295, -18159, 32224
3328, -3585, 3329, 11008, 3071, 4350, -14319, -13551, -18415, 32480
3328, -3585, 3329, 11520, 3071, 4350, -14575, -13807, -18415, 32736
4608, -2561, 4865, 11520, 3839, 4606, -15087, -14063, -18415, -32544
4608, -2561, 4865, 11520, 3839, 4606, -15343, -14575, -18415, -32288
4608, -2561, 4865, 11520, 3327, 4606, -15855, -14575, -18159, -32032
7168, -1281, 4097, 11520, 3327, 4606, -16367, -15087, -17903, -31776
7168, -1281, 4097, 11520, 4095, 4350, -16879, -15087, -17391, -31520
7168, -1281, 4097, 11776, 4095, 4350, -17135, -15599, -17391, -31264
8448, -769, 2049, 11776, 4095, 4606, -17391, -15855, -16879, -31008
8448, -769, 2049, 11776, 4095, 4606, -17391, -15855, -16367, -30752
8448, -769, 2049, 11776, 4351, 4350, -17135, -16111, -15855, -30496
9728, -2561, -768, 12032, 4351, 4350, -16879, -15855, -15599, -30240
9728, -2561, -768, 11776, 5119, 4606, -15599, -15087, -15087, -29728
10496, -5121, -3584, 11776, 4351, 4606, -14575, -14575, -15087, -29472
10496, -5121, -3584, 11520, 4351, 4606, -13807, -14063, -15087, -29216
10496, -5121, -3584, 11520, 5375, 4350, 0, -13295, -15087, -28960
10240, -7169, -6144, 11776, 5375, 4350, 768, -12783, -15087, -28704
10240, -7169, -6144, 11776, 5119, 4606, 1792, 768, -15087, -28448
10240, -7169, -6144, 12032, 5119, 4606, 2816, 1280, -15087, -28192
10240, -8449, -5120, 12032, 4607, 4606, 3840, 2048, -15343, -27936
10240, -8449, -5120, 11776, 4607, 4606, 4608, 2304, -15343, -27680
10240, -8449, -5120, 11776, 5119, 4862, 5376, 2560, -15343, -27424
9728, -7681, -2048, 11776, 5119, 4862, 6144, 3072, -15343, -27168
9728, -7681, -2048, 11776, 4095, 5118, 6912, 3328, -15343, -26912
9728, -7681, -2048, 12288, 4095, 5118, 7168, 3584, -15087, -26656
10240, -6401, 257, 13056, 4351, 5118, 7424, 4352, -14831, -26144
10240, -6401, 257, 13056, 3583, 6142, 7424, 4096, -14831, -25888
9728, -3841, 1537, 13056, 3583, 6142, 7424, 4608, -14575, -25632
9728, -3841, 1537, 13056, 3071, 6398, 7168, 4352, -14319, -25376
9216, -1281, 2817, 14080, 3071, 5886, 5888, 3840, -13807, -24608
9216, -1281, 2817, 14080, 1791, 6654, 5888, 3584, -13551, -24352
6656, -769, 3329, 14080, 1791, 6654, 5120, 3072, -13295, -24096
6656, -769, 3329, 14080, 2047, 6654, 4864, 2816, -13039, -23840
6656, -769, 3329, 14336, 2047, 6654, 4608, 2304, -12783, -23584
6144, -257, 2305, 14336, 1791, 7166, 4352, 1792, -12783, -23328
6144, -257, 2305, 14592, 1791, 7166, 4352, 1280, 0, -23072
6144, -257, 2305, 14592, 1279, 7422, 4352, 768, 0, -22816
3840, -1537, -256, 14848, 1279, 7422, 4096, 256, -12783, -22560
3840, -1537, -256, 14848, 1791, 7166, 4096, -13039, -13039, -22304
3840, -1537, -256, 14848, 1791, 7166, 3584, -13295, -13295, -22048
1280, -1281, 257, 14848, 1023, 7678, 3584, -13295, -13807, -21792
1280, -1281, 257, 14848, 1023, 7678, 4352, -13295, -14063, -21536
1280, -1281, 257, 14848, 1279, 7678, 4864, -14063, -14319, -21280
768, -7169, -768, 14848, 1279, 7678, 5376, -14831, -14831, -21024
768, -7169, -768, 14848, 1023, 7678, 5632, -15087, -15343, -20768
768, -7169, -768, 15104, 1023, 7678, 5888, -15343, -15855, -20512
768, -6913, -1280, 14848, -258, 8190, 5632, -14831, -16111, -20000
768, -6913, -1280, 14848, -2, 8190, 5376, -14319, -16111, -19744
2560, -4609, -512, 14848, -2, 8190, 5888, -18671, -14319, -19488
2560, -4609, -512, 15104, -514, 8446, 6400, 3072, -15343, -18976
13568, -7169, -14848, 15104, -770, 8446, 5120, 8448, -16367, -18720
13568, -7169, -14848, 14848, -770, 8446, 4608, 8448, -16111, -18464
13568, -7169, -14848, 14848, -514, 8958, 5120, 7168, -15087, -18208
3072, -1537, 4865, 15360, -514, 8958, 5120, 3328, -13807, -17952
3072, -1537, 4865, 15360, -1794, 9214, 6656, -14063, 768, -17696
3072, -1537, 4865, 15616, -1794, 9214, 7680, 768, 1280, -17440
4864, -12033, 1, 15616, -1282, 9214, 7168, 7168, 512, -17184
4864, -12033, 1, 15872, -1282, 9214, 6912, 9984, 256, -16928
4864, -12033, 1, 15872, -2050, 9726, 7680, 8960, 1536, -16672
7680, -9729, -4096, 15872, -2562, 9726, 8960, 8960, 2816, -16160
7680, -9729, -4096, 16640, -2562, 9726, 9216, 9472, 3072, -15904
6400, -8193, -2048, 17408, -2562, 10238, 9472, 7168, 4608, -15392
6400, -8193, -2048, 17408, -4098, 10750, 9472, 6912, 4864, -15136
4864, -7681, 3073, 17664, -4098, 10750, 8960, 7168, 5120, -14880
1024, -9217, 6657, 17920, -4866, 11518, 6912, 4608, 5888, -14112
1024, -9217, 6657, 17664, -4866, 11518, 5632, 4608, 5376, -13856
1024, -9217, 6657, 17664, -5890, 11518, 4352, 4096, 5120, -13600
-769, -9729, 8193, 17920, -5890, 11518, 3328, 3072, 5376, -13344
-769, -9729, 8193, 17920, -5122, 12030, 2304, 1792, 5120, -13088
-769, -9729, 8193, 17920, -5122, 12030, 1280, 1792, 5120, -12832
-3073, -9473, 8705, 17920, -6402, 12286, 0, 1792, 4608, -12576
-3073, -9473, 8705, 17920, -6402, 12286, -13295, 1024, 4608, -12320
-3073, -9473, 8705, 17920, -5634, 11774, -14063, 512, 4608, -12064
-3841, -8961, 7681, 18176, -5634, 11774, -14575, 512, 4352, -11808
-3841, -8961, 7681, 18176, -6146, 12030, -15087, 0, 4096, -11552
-3841, -9985, 5121, 18176, -6146, 12030, -14831, -13551, 3840, -11040
-3841, -9985, 5121, 17664, -5634, 12030, -14575, -13807, 3584, -10528
-4609, -10497, 2817, 18176, -5634, 12030, -14319, -14063, 3328, -10272
-4609, -10497, 2817, 18176, -6402, 12286, -14063, -14319, 2816, -10016
-4609, -10497, 2817, 17664, -6402, 12286, -13807, -14063, 2560, -9760
-5633, -11777, 3841, 17664, -5890, 12030, -13039, -14575, 1280, -8992
-6913, -12801, 4865, 17408, -5890, 12030, -12783, -15087, 1024, -8736
-6913, -12801, 4865, 17408, -5890, 12030, -12783, -15343, 512, -8480
-6913, -12801, 4865, 17408, -5890, 12030, -12783, -15599, 0, -8224
-7169, -12801, 8193, 17408, -5122, 11774, -13039, -15855, -13039, -7968
-7169, -12801, 8193, 17152, -5122, 11774, -13295, -15599, -13551, -7712
-7169, -12801, 8193, 17152, -6402, 11774, -13807, -15855, -13807, -7456
-5889, -12289, 11009, 16640, -5890, 11774, -14575, -15343, -14319, -6944
-5889, -12289, 11009, 17152, -5890, 11774, -14831, -15087, -14575, -6688
-3841, -12033, 11521, 17152, -5890, 11774, -15087, -15087, -14831, -6432
-3841, -12033, 11521, 17152, -5890, 11774, -15343, -14575, -14831, -6176
-3841, -12033, 11521, 17152, -6146, 12030, -15855, -14319, -14831, -5920
-1025, -13057, 11777, 16896, -6146, 12030, -15855, -14063, -14831, -5664
-1025, -13057, 11777, 16896, -5122, 11262, -16111, -13551, -14319, -5408
-1025, -13057, 11777, 16896, -5122, 11262, -16111, -13039, -14063, -5152
1024, -12801, 9729, 16896, -5634, 11518, -16367, 0, -13807, -4896
1024, -12801, 9729, 17152, -5634, 11518, -16111, 512, -13551, -4640
1024, -12801, 9729, 17152, -5122, 11006, -16111, 512, -13039, -4384
2816, -12033, 7937, 17152, -5122, 11006, -15855, 1024, -12783, -4128
2816, -12033, 7937, 17152, -4866, 11262, -15343, 1280, 0, -3872
2816, -12033, 7937, 16896, -4866, 11262, -14831, 1536, 256, -3616
2560, -11265, 5889, 16896, -5122, 11518, -14575, 1792, 512, -3360
2560, -11265, 5889, 17152, -5122, 11518, -14063, 2048, 768, -3104
1536, -11009, 5633, 17408, -4354, 11006, -13295, 2304, 512, -2592
1536, -11009, 5633, 17408, -5122, 11518, -12783, 2560, 512, -2336
256, -11009, 6657, 17408, -5122, 11262, 256, 2560, 0, -1824
256, -11009, 6657, 17408, -4866, 11262, 768, 2560, -13295, -1312
-513, -9217, 7169, 17920, -4866, 11262, 256, 2048, -13807, -1056
-513, -9217, 7169, 17920, -5890, 11518, -13039, 2048, -14319, -800
-513, -9217, 7169, 17920, -5890, 11518, -13295, 1536, -14575, -544
-2049, -5377, 10497, 17920, -4866, 11262, -13551, 1536, -15087, -288
-2049, -5377, 10497, 18176, -4866, 11262, -13295, 1536, -15343, -32
-2049, -5377, 10497, 18176, -5634, 11262, -13039, 1280, -15599, 225
-513, -9473, 8961, 17920, -5634, 11262, -13039, 1024, -15855, 481
-513, -9473, 8961, 17920, -5122, 11262, -12783, 1024, -15855, 737
-513, -9473, 8961, 18688, -5122, 11262, 0, 1280, -16111, 993
1792, -6657, 4865, 18688, -4610, 11518, -12783, 1536, -16111, 1249
1792, -6657, 4865, 18944, -4610, 11518, -12783, 2304, -15855, 1505
1792, -6657, 4865, 18944, -5634, 11518, 0, 2560, -15855, 1761
5120, -3585, 3073, 18688, -5634, 11518, 256, 2816, -15599, 2017
7168, -3073, 2817, 19456, -5378, 11262, 512, 3072, -14831, 2529
7168, -3073, 2817, 19456, -5378, 11262, 1024, 3328, -14319, 2785
7168, -3073, 2817, 19456, -5378, 11262, 1024, 3584, -13807, 3041
9216, -2305, 1793, 19456, -5890, 11518, 1024, 4096, -13039, 3297
9216, -2305, 1793, 19968, -5890, 11518, 1280, 4096, 0, 3553
9216, -2305, 1793, 19968, -5378, 11262, 1280, 4352, 768, 3809
8704, -2049, 257, 20224, -5378, 11262, 1280, 4096, 1280, 4065
8704, -2049, 257, 20224, -6146, 11774, 1536, 4096, 1792, 4321
8704, -2049, 257, 20224, -6146, 11774, 1792, 3328, 2304, 4577
6656, -1281, -768, 20224, -5890, 11262, 2304, 3328, 2560, 4833
6656, -1281, -768, 20736, -5890, 11262, 2816, 3072, 3072, 5089
6656, -1281, -768, 20736, -6402, 11774, 3072, 2816, 3328, 5345
6912, 0, -2304, 20480, -6402, 11774, 3328, 2816, 3840, 5601
6912, 0, -2304, 20480, -6914, 12030, 3584, 2816, 4096, 5857
6912, 0, -2304, 20736, -6914, 12030, 3840, 2816, 4352, 6113
6400, 0, -3328, 20480, -6402, 11518, 4352, 3072, 4608, 6625
4096, 0, -2560, 20736, -7682, 12286, 4608, 3328, 5376, 7137
4096, 0, -2560, 20736, -7426, 11774, 4352, 2816, 5632, 7393
4096, 0, -2560, 20992, -7426, 11774, 4096, 2304, 5632, 7649
768, 2304, 1, 20992, -8450, 12542, 3584, 2048, 5632, 7905
768, 2304, 1, 20736, -8706, 12542, 3072, 1280, 5632, 8417
-1793, 1792, 1, 20736, -8706, 12542, 3328, 768, 5376, 8673
-1793, 1792, 1, 20736, -8194, 12542, 3072, 0, 5120, 8929
-1793, 1792, 1, 20736, -8194, 12542, 2560, -13039, 4608, 9185
-4865, 2816, 1025, 20736, -9730, 12542, 2304, -13551, 4096, 9441
-4865, 2816, 1025, 19968, -9730, 12542, 1792, -13551, 3072, 9697
-4865, 2816, 1025, 19968, -9474, 12286, 1280, -13295, 2304, 9953
-4865, 4096, 2817, 20224, -9474, 12030, 0, -12783, 1024, 10465
-4865, 4096, 2817, 19712, -9474, 12030, -13295, -12783, 256, 10721
-3585, 4352, 5633, 19712, -10242, 12798, -13807, 0, -12783, 10977
-3585, 4352, 5633, 19712, -10242, 12798, -14575, 0, -13039, 11233
-3585, 4352, 5633, 19712, -9474, 12286, -15343, 256, -13295, 11489
-1793, 4352, 5889, 19968, -9474, 12286, -16111, 512, -13295, 11745
-1793, 4352, 5889, 19968, -9986, 12286, -16879, 512, -13551, 12001
-1793, 4352, 5889, 19712, -9986, 12286, -17647, 768, -13551, 12257
-769, 4608, 4865, 19968, -9474, 11774, -18671, 512, -13551, 12769
-769, 4608, 4865, 19968, -9218, 11774, -19183, 768, -13551, 13025
-1, 3840, 1537, 19968, -9474, 11518, -19439, 768, -13807, 13537
-1, 3840, 1537, 20224, -9474, 11518, -19439, 1024, -14063, 13793
0, 4096, -1280, 20224, -8194, 11006, -19439, 1024, -14319, 14049
0, 4096, -1280, 20736, -8194, 11006, -19439, 1024, -14575, 14305
0, 4096, -1280, 20736, -8450, 11006, -19183, 1024, -14575, 14561
0, 4608, -3840, 20480, -8194, 10750, -18415, 768, -15087, 15073
0, 4608, -3840, 20736, -8194, 10750, -18159, 768, -14831, 15329
0, 4352, -7168, 20736, -7426, 10238, -17903, 512, -15087, 15585
0, 4352, -7168, 20736, -7426, 10238, -17391, 512, -14831, 15841
0, 4352, -7168, 20736, -7682, 10494, -17135, 512, -14831, 16097
-1, 4352, -7680, 20992, -7682, 10494, -16623, 512, -14831, 16353
-1, 4352, -7680, 21248, -6914, 10238, -15855, 768, -15087, 16865
-513, 3840, -7680, 21248, -7170, 9982, -15599, 768, -15343, 17121
-513, 3840, -7680, 20992, -7170, 9982, -15343, 768, -15599, 17377
-513, 3840, -7680, 20992, -6914, 9726, -15087, 768, -15599, 17633
-513, 4608, -6144, 20992, -6914, 9726, -15087, 768, -15599, 17889
-513, 4608, -6144, 20992, -5890, 9214, -14831, 768, -15599, 18145
-513, 4608, -6144, 21504, -5890, 9214, -14575, 768, -15599, 18401
256, 6144, -3840, 21504, -6914, 9214, -14063, 512, -15599, 18913
256, 6144, -3840, 21504, -6146, 9214, -14063, 512, -15343, 19169
768, 7424, -2304, 21504, -6146, 9214, -14063, 0, -15343, 19425
768, 7424, -2304, 21504, -6146, 9214, -14063, 256, -15087, 19681
768, 7424, -2304, 21504, -6146, 9214, -13807, 512, -14831, 19937
2560, 8448, -1536, 21504, -6402, 9214, -13807, 0, -14319, 20193
2560, 8448, -1536, 21760, -5634, 8702, -13551, 1536, -14319, 20705
3584, 8192, -4096, 22272, -5634, 8702, -13551, 2304, -14319, 20961
3584, 8192, -4096, 22272, -6402, 8958, -13551, 2048, -13807, 21217
3584, 8192, -4096, 22016, -6402, 8958, -13551, 1792, -13295, 21473
768, 10496, 1537, 22016, -5378, 8446, -13807, 1280, -13039, 21729
768, 10496, 1537, 22272, -5378, 8446, -13807, 1536, -12783, 21985
768, 10496, 1537, 22272, -5634, 8702, -13807, 2048, 0, 22241
1792, 10752, -3072, 22528, -5634, 8702, -13807, 2816, 256, 22497
1792, 10752, -3072, 22528, -5634, 8702, -13807, 3072, 256, 22753
1792, 10752, -3072, 22528, -5634, 8702, -13807, 2560, 256, 23009
-1, 12288, -3072, 22528, -4866, 8702, -13551, 2048, 512, 23265
-1, 12288, -3072, 23040, -4866, 8702, -13295, 2560, 512, 23521
-1, 12288, -3072, 23040, -5890, 9214, -13039, 2816, 512, 23777
-769, 13568, -6144, 23296, -5890, 9214, 0, 2560, 0, 24033
-769, 13568, -6144, 23296, -5378, 8702, 512, 2048, 0, 24289
-1025, 14848, -6912, 23296, -4866, 8958, 1536, 1792, 0, 24801
-1025, 14848, -6912, 23296, -4866, 8958, 2048, 2048, 0, 25057
-1025, 14848, -6912, 23296, -5634, 9470, 3072, 2048, -12783, 25313
-1, 14848, -7168, 23296, -4866, 9214, 3840, 1792, 256, 25825
-1, 14848, -7168, 24320, -4866, 9214, 4096, 1536, 768, 26081
3584, 15616, -3840, 24064, -5634, 9726, 4352, 768, 2560, 26849
4608, 15616, 769, 24320, -5634, 9726, 4096, 768, 3072, 27105
4608, 15616, 769, 24320, -5634, 10238, 3584, 512, 3584, 27361
4608, 15616, 769, 24576, -5634, 10238, 3328, 256, 4096, 27617
1792, 15616, 3841, 24576, -6402, 10494, 3072, -12783, 4352, 27873
1792, 15616, 3841, 24064, -6402, 10494, 2304, -13039, 4864, 28129
1792, 15616, 3841, 24064, -5890, 10494, 1280, -13295, 5376, 28385
512, 20736, 8193, 24320, -5890, 10494, 1536, -14831, 4608, 28641
512, 20736, 8193, 24320, -6146, 11518, -13807, -15087, 2304, 28897
512, 20736, 8193, 24064, -6146, 11518, -16879, -15855, 1024, 29153
-19457, 27136, 16641, 24064, -6146, 11006, -18927, -16111, 0, 29409
-19457, 27136, 16641, 24320, -6146, 11006, -21743, -16623, -14831, 29665
-19457, 27136, 16641, 24320, -5378, 11518, -24047, -18159, -16879, 29921
-28929, 24576, 17921, 24320, -5378, 11518, -25583, -20463, -19183, 30177
-28929, 24576, 17921, 24320, -5634, 11006, -26863, -21487, -20975, 30433
-28929, 24576, 17921, 24320, -5634, 11006, -28143, -22511, -22767, 30689
-29953, 25088, 9729, 24320, -4098, 10750, -29679, -23535, -24047, 30945
-29953, 25088, 9729, 24320, -3330, 10750, -31471, -24815, -26607, 31457
-23041, 27392, 4609, 23808, -3330, 10750, -31727, -24815, -27375, 31713
-23041, 27392, 4609, 23808, -2306, 10238, -32239, -24559, -28143, 31969
-14593, 26880, -3328, 24064, -514, 9982, -30703, -24047, -29679, 32737
-14593, 26880, -3328, 24064, -258, 9726, -29679, -23279, -30191, -32543
-6913, 26112, -11264, 24320, -258, 9726, -28399, -22511, -30447, -32287
-6913, 26112, -11264, 24320, 1535, 9214, -26863, -21743, -30447, -32031
-6913, 26112, -11264, 24320, 1535, 9214, -25327, -20207, -30191, -31775
256, 26112, -21504, 24320, 2047, 9726, -23535, -18415, -30191, -31519
256, 26112, -21504, 24320, 2047, 9726, -21743, -16367, -29935, -31263
6656, 27904, -26624, 25344, 2303, 8958, -17903, -13551, -28399, -30751
6656, 27904, -26624, 25344, 3839, 9214, -15855, 256, -27631, -30495
6656, 27904, -26624, 25856, 3839, 9214, -14063, 1280, -26863, -30239
10240, 30208, -26624, 25856, 2815, 9982, 256, 2304, -26095, -29983
10240, 30208, -26624, 26112, 2815, 9982, 2048, 3072, -25071, -29727
10240, 30208, -26624, 26112, 3583, 9726, 3840, 3584, -24047, -29471
11520, 32256, -24576, 26880, 3583, 9726, 5120, 3840, -23023, -29215
11520, 32256, -24576, 26880, 3071, 10494, 6912, 4096, -21743, -28959
11520, 32256, -24576, 27392, 3071, 10494, 7936, 4096, -20463, -28703
12800, -30464, -18688, 27392, 2047, 11006, 9216, 4096, -19183, -28447
12800, -30464, -18688, 27904, 2047, 11006, 10240, 3584, -17903, -28191
12800, -30464, -18688, 27904, 2047, 11262, 10752, 3584, -16623, -27935
11520, -27648, -10752, 28672, 2047, 11262, 10752, 2816, -15087, -27679
11520, -27648, -10752, 28928, 511, 12286, 10752, 1536, -13295, -27167
8448, -26368, -1792, 28928, 511, 12542, 9984, 768, 256, -26911
8448, -26368, -1792, 29440, 511, 12542, 9216, -12783, 1024, -26655
8448, -26368, -1792, 29440, -258, 13310, 8192, -13551, 2048, -26399
4608, -24320, 6401, 29440, -258, 13310, 6912, -14319, 2560, -26143
4608, -24320, 6401, 29440, -1282, 13566, 5632, -15599, 3072, -25887
4608, -24320, 6401, 29440, -1282, 13566, 4096, -16367, 3584, -25631
768, -22016, 11777, 29440, -1282, 13310, 2560, -17135, 3840, -25375
768, -22016, 11777, 29184, -1282, 13310, 768, -17647, 3840, -25119
768, -22016, 11777, 29184, -2050, 14078, -13295, -18159, 4096, -24863
-1793, -21760, 12801, 28672, -2050, 14078, -14575, -18671, 4096, -24607
-1793, -21760, 12801, 28672, -1794, 13822, -15855, -18927, 4096, -24351
-1793, -21760, 12801, 28416, -1794, 13822, -17135, -19183, 4352, -24095
-3073, -21760, 10497, 28416, -1794, 13566, -18159, -19439, 4352, -23839
-3073, -21760, 10497, 28160, -2050, 13566, -19951, -20207, 4608, -23327
-3841, -21760, 6401, 27392, -2050, 13566, -20207, -20463, 4608, -23071
-3841, -21760, 6401, 27392, -1026, 12798, -20719, -20719, 4608, -22815
-3841, -21760, 6401, 27392, -1026, 12798, -21231, -20975, 4608, -22559
-3585, -22784, 2305, 27392, -1538, 13054, -21231, -20975, 4608, -22303
-3585, -22784, 2305, 26368, -1538, 13054, -21231, -20975, 4608, -22047
-3585, -22784, 2305, 26368, -770, 12286, -21487, -20975, 4608, -21791
-3329, -24576, -256, 25856, -770, 12286, -21231, -20975, 4608, -21535
-3329, -24576, -256, 25856, -258, 12030, -20975, -20463, 4608, -21279
-3329, -24576, -256, 25600, -258, 12030, -20719, -20207, 4608, -21023
-2305, -26368, -3328, 25600, -770, 11774, -20463, -19695, 4352, -20767
-2305, -26368, -3328, 24832, -770, 11774, -19695, -19439, 4608, -20511
-2305, -26368, -3328, 24832, 767, 11006, -19183, -19183, 4608, -20255
256, -27392, -6144, 24320, 767, 11006, -18671, -18927, 4864, -19999
256, -27392, -6144, 24320, 1023, 11006, -17903, -18415, 4864, -19743
256, -27392, -6144, 23808, 1023, 11006, -17135, -17903, 5120, -19487
2304, -29952, -6656, 23808, 1023, 10238, -16623, -17135, 5120, -19231
2304, -29952, -6656, 23552, 1023, 10238, -15855, -16623, 5632, -18975
2304, -29952, -6656, 23552, 1791, 9726, -15599, -15599, 5632, -18719
3328, -32000, -7936, 22784, 1791, 9726, -14831, -14575, 5888, -18463
3328, -32000, -7936, 22272, 1023, 9726, -13807, -13295, 6400, -17951
6400, 31232, -6144, 22272, 2303, 9214, -13551, 0, 6912, -17695
6400, 31232, -6144, 22272, 2303, 9214, -13295, 1024, 7168, -17439
6400, 31232, -6144, 22272, 1791, 9214, -13039, 1792, 7936, -17183
8448, 28416, -5120, 21760, 1535, 8958, 256, 3840, 9216, -16671
8448, 28416, -5120, 21760, 1535, 8958, 512, 4608, 9728, -16415
9984, 26112, -6400, 21760, 2559, 8702, 768, 5632, 10240, -16159
9984, 26112, -6400, 21760, 2559, 8702, 1280, 6144, 10752, -15903
9984, 26112, -6400, 21760, 1535, 8702, 1792, 7168, 11264, -15647
9472, 23808, -8960, 21760, 1535, 8702, 2048, 7424, 11776, -15391
9472, 23808, -8960, 21760, 1791, 8190, 2816, 7680, 12288, -15135
9472, 23808, -8960, 21760, 1791, 8190, 3072, 8192, 12544, -14879
8448, 22784, -9728, 21760, 1535, 8702, 3584, 8448, 12800, -14623
8448, 22784, -9728, 21760, 1535, 8702, 4096, 8448, 12544, -14367
8448, 22784, -9728, 21760, 767, 8446, 4096, 8448, 12288, -14111
5376, 21504, -9472, 21760, 767, 8446, 3840, 8704, 12032, -13855
5376, 21504, -9472, 22016, 1023, 8446, 3328, 8192, 10752, -13343
3328, 19200, -5632, 22016, -2, 8446, 3072, 7936, 10240, -13087
3328, 19200, -5632, 21760, -2, 8446, 2560, 7168, 9472, -12831
3328, 19200, -5632, 21760, 511, 8190, 1792, 6400, 8704, -12575
1280, 19200, -1792, 22016, 511, 8190, 1024, 5632, 8192, -12319
1280, 19200, -1792, 22016, -2, 8190, 0, 4608, 7680, -12063
0, 18688, 2305, 22016, -258, 8190, -14575, 2816, 6400, -11551
0, 18688, 2305, 21504, -258, 8190, -16111, 2048, 5888, -11295
0, 18688, 2305, 21504, 511, 7678, -17391, 1024, 5376, -11039
-2049, 18176, 4097, 21760, 511, 7678, -18671, 0, 5376, -10783
-2049, 18176, 4097, 21760, 255, 7422, -19695, -13039, 4864, -10527
-2305, 17664, 3585, 21760, 511, 6654, -21743, -14063, 4352, -10015
-2305, 17664, 3585, 21760, 511, 6654, -22511, -14063, 4096, -9759
-2305, 17664, 3585, 21760, 1279, 6654, -23023, -14063, 3840, -9503
-1793, 16384, -2816, 21248, 1279, 6654, -23279, -14063, 3584, -9247
-1793, 16384, -2816, 20736, 1535, 6398, -23023, -12783, 2560, -8735
-2561, 14848, -8960, 20736, 2559, 6142, -22511, 256, 2048, -8479
-2561, 14848, -8960, 20992, 2559, 6142, -22255, 768, 1536, -8223
-2561, 14848, -8960, 20992, 2815, 5886, -21487, 1792, 1280, -7967
-2305, 14848, -13824, 20736, 2815, 5886, -20463, 2048, 512, -7711
-2305, 14848, -13824, 20736, 3327, 5118, -18927, 2560, 256, -7455
-2305, 14848, -13824, 20992, 3327, 5118, -18159, 2816, -12783, -7199
-1281, 12032, -16640, 20992, 3583, 5118, -17391, 3328, -13295, -6943
-1281, 12032, -16640, 20736, 3583, 5118, -16623, 3072, -13807, -6687
-1281, 12032, -16640, 20736, 2815, 4862, -15599, 3328, -14063, -6431
-2817, 9472, -15616, 20992, 2815, 4862, -14831, 3328, -14319, -6175
-2817, 9472, -15616, 20992, 4095, 4350, -14063, 3072, -14319, -5919
-2817, 9472, -15616, 21504, 4095, 4350, -13295, 2560, -14575, -5663
-1793, 7680, -14848, 21504, 3839, 4606, -12783, 2048, -14319, -5407
-1793, 7680, -14848, 21504, 3839, 4606, 512, 1280, -14575, -5151
-1793, 7680, -14848, 21504, 3327, 4862, 768, 1024, -14319, -4895
-257, 6656, -11520, 21504, 3327, 4862, 1024, 768, -14319, -4639
-257, 6656, -11520, 21504, 4095, 4606, 1280, 768, -14063, -4383
-257, 6656, -11520, 21760, 4095, 4606, 1280, 512, -14063, -4127
1280, 6912, -9216, 21760, 2559, 4862, 1536, 512, -13807, -3871
1280, 6912, -9216, 21760, 2559, 4862, 1280, 1024, -13551, -3615
2048, 7168, -7680, 21760, 3583, 4606, 1280, 1280, -13295, -3359
2048, 7168, -7680, 22272, 3583, 4606, 1024, 1792, -13039, -3103
2816, 6400, -8192, 21760, 3071, 4862, 768, 2560, 0, -2591
2816, 6400, -8192, 21760, 2559, 4862, 768, 3072, 256, -2335
2816, 6400, -8192, 22016, 2559, 4862, 768, 3584, 512, -2079
2560, 6400, -7936, 22016, 3327, 5118, 1024, 4096, 512, -1823
2560, 6400, -7936, 22528, 2047, 5374, 1280, 4608, 768, -1311
1280, 4864, -8192, 22272, 2047, 5374, 1536, 4608, 1024, -1055
1280, 4864, -8192, 22272, 2815, 5118, 1280, 4864, 1024, -799
1280, 4864, -8192, 23040, 2815, 5118, 1536, 4608, 768, -543
256, 2560, -6400, 23040, 2303, 5630, 1536, 4608, 768, -287
256, 2560, -6400, 23040, 2303, 5630, 1792, 4352, 768, -31
256, 2560, -6400, 23040, 2047, 5630, 1536, 3584, 768, 226
256, 2304, -3072, 23552, 2047, 5630, 1792, 3072, 768, 482
256, 2304, -3072, 23552, 2303, 5886, 1024, 1792, 768, 994
256, 2304, -768, 23552, 1279, 6142, 512, 1024, 1024, 1250
256, 2304, -768, 23296, 1535, 5886, -13039, 0, 1024, 1762
-1025, 2816, -512, 24064, 1535, 5886, -13551, -13295, 1280, 2018
-1025, 2816, -512, 24064, 1791, 6398, -13807, -14063, 1280, 2274
-1025, 2816, -512, 23552, 1791, 6398, -14319, -15087, 1280, 2530
-1793, 2304, -768, 23552, 1279, 6398, -14831, -15855, 1024, 2786
-1793, 2304, -768, 23552, 1279, 6398, -14831, -16367, 768, 3042
-1793, 2304, -768, 23552, 2047, 6398, -15087, -16879, 512, 3298
-3329, -257, -2048, 23552, 1279, 6654, -15087, -17391, -12783, 3810
-3329, -257, -2048, 23040, 1279, 6654, -15087, -17647, -13295, 4066
-4609, -3329, -2304, 23040, 2047, 6142, -14831, -17647, -14063, 4322
-4609, -3329, -2304, 23040, 2047, 6398, -14319, -17647, -15599, 4834
-4097, -6401, -1536, 22784, 2047, 6398, -14319, -17647, -16111, 5090
-4097, -6401, -1536, 22784, 1535, 6398, -14063, -17135, -16623, 5346
-4097, -6401, -1536, 22272, 1535, 6398, -13807, -17135, -17391, 5602
-3073, -7937, 769, 22272, 2559, 6142, -13807, -16879, -17647, 5858
-3073, -7937, 769, 22528, 2559, 6142, -14063, -17135, -18159, 6114
-3073, -7937, 769, 22528, 2303, 6654, -14063, -16879, -18159, 6370
-2561, -8193, 2049, 22016, 2815, 5886, -14831, -16367, -18415, 6882
-2561, -8193, 2049, 22528, 2815, 5886, -14831, -15855, -18159, 7138
256, -8449, 1281, 22528, 2815, 6654, -15343, -15087, -17647, 7394
256, -8449, 1281, 22528, 2815, 6654, -15599, -14319, -17391, 7650
256, -8449, 1281, 22528, 2559, 6654, -15599, -13807, -16879, 7906
2816, -7937, 769, 22272, 2559, 6654, -15343, -13039, -16367, 8162
2816, -7937, 769, 22272, 3583, 6142, -15343, 256, -15599, 8418
2816, -7937, 769, 22784, 3583, 6142, -15087, 1024, -15087, 8674
5632, -8449, -1024, 22784, 3071, 6398, -14575, 1792, -14319, 8930
5632, -8449, -1024, 22528, 3071, 6398, -13807, 3072, -12783, 9442
6400, -9985, -2816, 23040, 3071, 6398, -13039, 3584, 512, 9698
6400, -9985, -2816, 23296, 3839, 6654, 256, 4352, 1792, 10210
5120, -11265, -3328, 23296, 2815, 6654, 1024, 4352, 2560, 10466
5120, -11265, -3328, 23296, 3583, 6654, 1792, 4352, 3328, 10978
2304, -11777, -2560, 23808, 3583, 6654, 2304, 4096, 3840, 11234
2304, -11777, -2560, 23808, 3327, 7166, 2560, 3840, 4096, 11490
2304, -11777, -2560, 23552, 3327, 7166, 3072, 3328, 4352, 11746
1024, -10497, -768, 24064, 2815, 7422, 3328, 2560, 4608, 12258
1024, -10497, -768, 24064, 2815, 7422, 3328, 2304, 4864, 12514
-769, -7681, 2817, 23808, 2815, 7422, 3328, 2048, 4864, 12770
-769, -7681, 2817, 23808, 1791, 7934, 3328, 1280, 5120, 13282
-2049, -4865, 3841, 23808, 2047, 7678, 3328, 1280, 4608, 13538
-2049, -4865, 3841, 24064, 2047, 7678, 3072, 1024, 4608, 13794
-2817, 512, 6145, 24064, 1791, 7934, 2048, 1792, 3840, 14306
-2817, 512, 6145, 24064, 1279, 8190, 1792, 2304, 3584, 14562
-2817, 512, 6145, 24064, 1279, 8190, 2048, 2560, 3328, 14818
-3329, -2561, 5121, 24064, 1535, 8446, 2560, 3328, 3328, 15074
-3329, -2561, 5121, 24320, 511, 8958, 3584, 4096, 3072, 15586
-2049, -2049, 2817, 24064, 511, 8958, 4096, 4608, 3072, 15842
-2049, -2049, 2817, 24064, 1023, 8702, 4352, 5632, 3072, 16098
-2049, -2049, 2817, 24320, 1023, 8702, 5120, 6400, 3072, 16354
-1, -769, 1281, 24320, 511, 8958, 5632, 7424, 3328, 16610
-1, -769, 1281, 24576, -258, 9470, 7168, 8448, 3072, 17122
-513, -257, 2817, 25088, -258, 9470, 7680, 8448, 2816, 17378
-513, -257, 2817, 25088, -2, 9470, 8192, 8448, 2816, 17634
-513, -257, 2817, 25600, -2, 9470, 8448, 8448, 2816, 17890
-1537, -1537, 4097, 25600, -1282, 10494, 8960, 8192, 2560, 18146
-1537, -1537, 4097, 25600, -1282, 10494, 8960, 8192, 2560, 18402
-257, -1537, 5633, 26624, -1026, 10494, 8960, 7936, 2560, 18914
-257, -1537, 5633, 26624, -2050, 11006, 8704, 7424, 2816, 19170
-257, -1537, 5633, 26624, -2050, 11006, 8448, 6912, 3072, 19426
768, -513, 7169, 26624, -2818, 11518, 7936, 6400, 3328, 19682
768, -513, 7169, 27136, -2818, 11518, 7424, 6144, 3584, 19938
768, 256, 6145, 27392, -2818, 11262, 6400, 5376, 4352, 20450
768, 256, 6145, 27392, -3842, 12286, 5888, 4864, 4864, 20706
768, 256, 6145, 27392, -3842, 12286, 5632, 4352, 5376, 20962
-1, -257, 3585, 27904, -4098, 12030, 5376, 3584, 5632, 21474
-1, -257, 3585, 27904, -4354, 12542, 5376, 2816, 5376, 21730
-2561, -2817, 1, 27904, -4354, 12542, 5888, 2048, 5120, 21986
-2561, -2817, 1, 27904, -5378, 12798, 6400, 768, 4608, 22498
-5633, -4865, -1536, 27904, -4866, 12798, 6912, 0, 3840, 22754
-5633, -4865, -1536, 27904, -6146, 13310, 7936, -13551, 2816, 23266
-6657, -7169, -1536, 27392, -6146, 13310, 8448, -13807, 2304, 23522
-6657, -7169, -1536, 27392, -6658, 13822, 8704, -14319, 1792, 23778
-6657, -7169, -1536, 27648, -6658, 13822, 8960, -14831, 1024, 24034
-6401, -7425, 3585, 27648, -6658, 14078, 8960, -15343, 768, 24290
-6401, -7425, 3585, 27136, -8194, 14590, 7936, -16111, -12783, 24802
-7425, -7425, 8961, 27136, -8194, 14590, 7168, -16367, -13551, 25058
-7425, -7425, 8961, 27648, -7426, 14078, 6656, -16367, -14063, 25570
-7169, -12289, 11265, 27648, -8450, 14846, 6144, -16879, -14575, 25826
-7169, -12289, 11265, 26880, -8450, 14846, 5888, -17135, -14831, 26082
-7169, -12289, 11265, 26880, -8450, 14846, 5376, -17135, -15343, 26338
-5121, -15105, 12033, 26624, -8450, 14846, 5120, -16879, -15855, 26594
-5121, -15105, 12033, 26624, -8450, 14590, 4608, -16623, -15855, 26850
-5121, -15105, 12033, 26624, -8450, 14590, 4096, -16367, -16111, 27106
-3073, -16897, 14337, 26624, -9474, 15358, 3584, -16623, -16111, 27362
-3073, -16897, 14337, 26624, -9474, 15358, 2816, -16623, -16367, 27618
-3073, -16897, 14337, 26624, -9218, 14846, 2304, -16879, -16367, 27874
-2049, -18177, 16897, 26624, -9218, 14846, 1792, -17135, -16367, 28130
-2049, -18177, 16897, 26624, -8962, 15614, 1024, -17391, -16111, 28386
-2049, -18177, 16897, 26112, -8962, 15614, 0, -17903, -16111, 28642
-1025, -20481, 16897, 26112, -9730, 15358, -13295, -17903, -16111, 28898
-1025, -20481, 16897, 26368, -9730, 15358, -14319, -18159, -15855, 29154
-1025, -20481, 16897, 26368, -8706, 14846, -15343, -18671, -16111, 29410
-2561, -25345, 17153, 25600, -8450, 14334, -17135, -21487, -15087, 30434
-2561, -25345, 17153, 25856, -8450, 14334, -17135, -21999, -15087, 30690
-1537, -26113, 12289, 25344, -8450, 14590, -17647, -22511, -14575, 31202
-1537, -26113, 12289, 25344, -8450, 14334, -17647, -22511, -14575, 31458
-1537, -26113, 12289, 25088, -8450, 14334, -17391, -22767, -14319, 31714
-513, -25089, 8705, 25088, -7426, 13566, -17391, -23023, -14063, 31970
-513, -25089, 8705, 24832, -7426, 13566, -17135, -23535, -14063, 32226
-1793, -22529, 8193, 24064, -8194, 13566, -16367, -24559, -14319, 32738
-1793, -22529, 8193, 24064, -7426, 13310, -15855, -25071, -14063, -32542
-1793, -22529, 8193, 23552, -7426, 13310, -15087, -25327, -14319, -32286
-2049, -23297, 7425, 23552, -7170, 13054, -14319, -25071, -14319, -32030
-2049, -23297, 7425, 23040, -7170, 13054, -13807, -24559, -14319, -31774
-2049, -23297, 7425, 23040, -8194, 12798, -13551, -23791, -13807, -31518
0, -22529, 9729, 22272, -8194, 12798, -13295, -22511, -13807, -31262
0, -22529, 9729, 22272, -7170, 12286, -13295, -21231, -13551, -31006
0, -22529, 9729, 21760, -7170, 12286, -13295, -19695, -13295, -30750
1536, -18177, 13825, 21760, -7938, 12798, -13807, -18159, -13039, -30494
1536, -18177, 13825, 21248, -7938, 12798, -14319, -16623, -12783, -30238
1536, -18177, 13825, 21248, -7426, 12286, -14831, -15343, -12783, -29982
256, -15873, 17153, 21248, -7426, 12286, -15599, -13295, 0, -29726
256, -15873, 17153, 21248, -6914, 12542, -16111, 256, 256, -29470
256, -15873, 17153, 20992, -6914, 12542, -16623, 1024, 256, -29214
-2305, -16641, 16897, 20992, -7682, 12286, -16879, 2304, 256, -28958
-2305, -16641, 16897, 20992, -7682, 12286, -17391, 3072, 0, -28702
-769, -15873, 10497, 21504, -7170, 12286, -18927, 9728, 0, -27934
-769, -15873, 10497, 21248, -7170, 12286, -19695, 13312, 256, -27678
512, -11521, -3328, 21248, -6146, 11774, -19951, 12544, -12783, -27422
512, -11521, -3328, 22016, -6146, 11774, -19951, 10752, -13039, -27166
512, -11521, -3328, 22016, -5890, 11518, -19951, 8704, -13295, -26910
-769, -9217, 11777, 22784, -5890, 11518, -19695, 6912, -13295, -26654
-769, -9217, 11777, 22784, -6402, 11518, -19695, 5888, -13295, -26398
-769, -9217, 11777, 22784, -6402, 11518, -19695, 4608, -12783, -26142
-513, -7169, 4353, 22784, -5378, 11006, -19951, 3328, 256, -25886
-513, -7169, 4353, 23296, -5378, 11006, -20207, 2816, 1024, -25374
-257, -3073, -4864, 23552, -5378, 11006, -20463, 3584, 1280, -25118
-257, -3073, -4864, 23552, -5378, 11006, -20719, 4096, 1280, -24862
-513, 512, -9984, 23808, -4354, 10494, -19951, 1024, 1536, -24350
-513, 512, -9984, 23808, -4354, 10494, -19439, -13039, 1536, -24094
-513, 512, -9984, 23808, -4610, 10494, -18927, -14831, 1792, -23838
-1537, 5888, -9472, 23552, -4610, 10494, -18415, -16879, 1792, -23582
-1537, 5888, -9472, 23552, -3586, 9982, -17903, -18159, 1792, -23326
-1537, 5888, -9472, 24064, -3586, 9982, -17391, -19439, 2048, -23070
-3073, 9984, -11776, 24064, -4098, 9726, -16879, -19951, 2048, -22814
-3073, 9984, -11776, 23040, -4098, 9470, -16111, -19183, 2048, -22302
-1793, 12544, -13824, 22784, -4098, 9470, -16111, -18415, 1792, -22046
-1793, 12544, -13824, 22784, -3074, 8958, -15855, -17647, 2048, -21790
-1793, 12544, -13824, 22528, -3074, 8958, -15855, -16879, 1792, -21534
-1793, 16128, -12288, 22528, -3842, 8958, -15855, -16367, 1792, -21278
-1793, 16128, -12288, 22016, -3842, 8958, -15599, -16111, 1792, -21022
-4097, 18944, -11008, 22016, -3074, 8446, -15855, -15599, 1536, -20510
-4097, 18944, -11008, 21760, -3586, 8702, -16367, -16111, 1792, -19998
-5377, 23552, -8704, 21760, -3330, 8190, -16879, -16879, 1792, -19742
-5377, 23552, -8704, 21504, -3330, 8190, -17135, -17391, 1792, -19486
-5377, 23552, -8704, 21504, -2562, 7934, -17903, -18159, 1792, -19230
-4609, 28672, -8960, 20992, -2562, 7934, -18415, -18671, 1792, -18974
-4609, 28672, -8960, 20992, -2818, 7934, -19439, -19183, 1536, -18718
-5377, -32768, -9984, 20224, -2306, 6910, -21231, -21487, 1536, -17950
-5377, -32768, -9984, 20224, -1794, 7166, -21487, -22255, 1280, -17694
-5889, -31232, -13312, 19712, -1794, 7166, -21743, -23023, 1024, -17438
-5889, -31232, -13312, 19712, -1538, 7166, -21743, -23791, 768, -17182
-5889, -31232, -13312, 19200, -1538, 7166, -21743, -24303, 512, -16926
-5889, 32512, -14336, 19200, -258, 6142, -21231, -25071, 256, -16670
-5889, 32512, -14336, 18688, -258, 6142, -20719, -25583, 0, -16414
-5889, 32512, -14336, 18688, -770, 5886, -20207, -29167, 512, -16158
-4353, 29696, -12800, 17664, -770, 5886, -17647, -32239, 1024, -15902
-4353, 29696, -12800, 17664, 255, 5374, -17391, -24559, -13295, -15646
-4353, 29696, -12800, 16896, 255, 5374, -17647, -18159, -15087, -15390
6400, 30208, 31488, 16896, 767, 5118, -17135, -18159, -15343, -15134
6400, 30208, 31488, 16128, 767, 5118, -16367, -21743, -15087, -14878
-6913, -30208, -3840, 15872, 255, 5118, -14831, -28399, -14319, -14366
-6913, -30208, -3840, 15360, 1279, 4606, -14575, -26607, -14831, -13854
512, 31488, -10240, 15360, 767, 4862, -14575, -23535, -15343, -13598
512, 31488, -10240, 14080, 767, 4862, -14575, -20975, -15599, -13342
512, 31488, -10240, 14080, 1279, 4350, -13807, -20207, -15087, -13086
5120, 27904, -11264, 13824, 1279, 4350, -12783, -18159, -14831, -12830
5120, 27904, -11264, 13056, 1279, 4606, 256, -14575, -14575, -12318
9216, 31744, -8192, 13056, 767, 4350, 1024, -15087, -13807, -12062
9216, 31744, -8192, 13312, 767, 4350, 1792, -15343, -13295, -11806
9216, 31744, -8192, 13312, 1535, 4094, 2560, -14063, 0, -11550
8960, 32000, -512, 13568, 1535, 4094, 3072, 1280, 0, -11294
8960, 32000, -512, 13056, 767, 4606, 4352, 5632, 768, -10782
14848, 28928, -4352, 13056, 511, 4350, 5376, 7424, 1024, -10526
14848, 28928, -4352, 13056, 767, 4862, 6400, 9728, 1280, -10014
16896, 28672, 1537, 14080, 767, 4862, 6912, 9984, 1536, -9758
16896, 28672, 1537, 14080, -514, 4862, 6912, 10240, 2048, -9502
18432, 29696, 5889, 14336, -514, 4862, 7168, 11008, 2048, -9246
18432, 29696, 5889, 14336, -258, 5118, 7424, 12032, 2048, -8990
18432, 29696, 5889, 15104, -258, 5118, 6912, 12800, 2048, -8734
20224, 28672, 5377, 15104, -1282, 5886, 6656, 13056, 2048, -8478
20224, 28672, 5377, 15360, -1282, 5886, 6144, 13056, 2048, -8222
20224, 28672, 5377, 15360, -1538, 6142, 5632, 13056, 1792, -7966
20480, 27136, 7425, 16128, -1538, 6142, 4864, 12544, 1792, -7710
20480, 27136, 7425, 16128, -1538, 5886, 4096, 11776, 1536, -7454
20480, 27136, 7425, 17152, -1538, 5886, 3328, 11264, 1792, -7198
21760, 25088, 7937, 17152, -2306, 6398, 2816, 10752, 1536, -6942
21760, 25088, 7937, 17408, -2306, 6398, 1792, 10496, 1792, -6686
23040, 22528, 6657, 18432, -2050, 6398, 512, 9216, 1792, -6174
23040, 22528, 6657, 18432, -2306, 6654, -12783, 8448, 2048, -5918
23040, 22528, 6657, 18688, -2306, 6654, -13551, 7680, 2048, -5662
23296, 21504, 5889, 18688, -2562, 6910, -14319, 7168, 2048, -5406
23296, 21504, 5889, 18944, -2562, 6910, -14831, 6400, 2304, -5150
23296, 21504, 5889, 18944, -1794, 7166, -15343, 6144, 2304, -4894
23808, 19456, 3585, 19712, -1794, 7166, -15599, 5632, 2304, -4638
23808, 19456, 3585, 19712, -2562, 7166, -16111, 5120, 2304, -4382
23808, 19456, 3585, 19712, -2562, 7166, -16367, 4608, 2304, -4126
24320, 18688, 1793, 19712, -1794, 7166, -16623, 4352, 2048, -3870
24320, 18688, 1793, 20224, -1794, 7166, -16623, 4096, 1792, -3614
24320, 18688, 1793, 20224, -1794, 7166, -16623, 3840, 2048, -3358
24832, 18688, -512, 20224, -2050, 7422, -16623, 3584, 1280, -2846
24832, 18688, -512, 20480, -2050, 7422, -16367, 3840, 1024, -2590
23808, 16896, -1792, 20480, -1282, 7166, -16367, 3840, 512, -2334
23808, 16896, -1792, 20992, -1282, 7166, -16367, 4096, 256, -2078
23808, 16896, -1792, 20992, -1282, 7678, -16367, 4096, 0, -1822
25344, 14848, -1536, 20992, -1282, 7678, -16367, 3840, -13039, -1566
25344, 14848, -1536, 20992, -1026, 7166, -16367, 3840, -12783, -1310
26880, 12032, -512, 21248, -770, 7678, -16367, 2816, 0, -542
26880, 12032, -512, 21248, -770, 7422, -16367, 2560, 256, -286
30208, 10496, -512, 21760, -770, 7422, -16623, 2304, 768, -30
30208, 10496, -512, 21760, -258, 7422, -16623, 2048, 1024, 227
30208, 10496, -512, 22272, -258, 7422, -16623, 1536, 1792, 483
31744, 9472, 513, 22272, -770, 7678, -16623, 1024, 2560, 739
31744, 9472, 513, 21760, -770, 7678, -16879, 512, 3072, 995
31744, 9472, 513, 21760, -258, 7934, -16623, 256, 3840, 1251
-32768, 7936, 769, 22272, -258, 7934, -16623, 0, 4608, 1507
-32768, 7936, 769, 22272, 255, 7678, -16367, -12783, 5376, 1763
-32768, 7936, 769, 22272, 255, 7678, -16367, -13039, 6400, 2019
-32256, 7168, 1, 22272, -258, 8190, -16111, -13039, 7168, 2275
-32256, 7168, 1, 21504, -258, 8190, -16111, -13039, 7936, 2531
-32256, 7168, 1, 21504, 511, 7934, -15855, -13295, 8704, 2787
31488, 6912, 1537, 22016, 511, 7934, -15599, -13295, 9472, 3043
31488, 6912, 1537, 22016, 255, 8702, -15343, -13039, 10240, 3299
31488, 6912, 1537, 21504, 255, 8702, -15343, -13039, 10752, 3555
28160, 6400, 2305, 21504, 255, 8190, -15087, -12783, 11264, 3811
28160, 6400, 2305, 21504, 255, 8190, -15087, -12783, 11776, 4067
28160, 6400, 2305, 21504, 511, 8190, -14831, 256, 12032, 4323
23552, 7168, 3329, 20992, 511, 8190, -14831, 512, 12544, 4579
23552, 7168, 3329, 20992, -514, 8446, -15087, 1024, 12544, 4835
23552, 7168, 3329, 20480, -514, 8446, -15087, 1536, 12544, 5091
17664, 7424, 5121, 20480, 767, 8702, -15087, 2304, 12288, 5347
17664, 7424, 5121, 20736, 767, 8702, -15087, 3072, 12288, 5603
17664, 7424, 5121, 20736, 255, 8958, -15343, 3328, 12032, 5859
13568, 6656, 3841, 20224, 255, 8958, -15343, 4096, 11520, 6115
13568, 6656, 3841, 20224, -2, 8446, -15343, 4608, 11264, 6371
13568, 6656, 3841, 20480, -2, 8446, -15343, 5120, 10752, 6627
10240, 6656, 3585, 20480, 511, 8702, -15343, 5376, 10496, 6883
10240, 6656, 3585, 20480, 511, 8702, -15343, 5120, 10240, 7139
10240, 6656, 3585, 20480, -514, 8958, -15343, 5120, 9984, 7395
7424, 6400, 3329, 20224, -514, 8958, -15343, 4864, 9984, 7651
7424, 6400, 3329, 20224, 255, 8958, -15343, 4608, 9728, 7907
7424, 6400, 3329, 20480, 255, 8958, -15343, 4096, 9728, 8163
4608, 6656, 2049, 20480, -2, 9470, -15343, 3328, 9472, 8419
4608, 6656, 2049, 20736, -2, 9470, -15599, 3072, 9472, 8675
4608, 6656, 2049, 20736, -2, 9214, -15855, 2560, 9472, 8931
2304, 6912, 1025, 20480, 767, 9214, -16367, 1536, 8960, 9443
2304, 6912, 1025, 20736, 767, 9214, -16367, 1280, 8960, 9699
0, 8192, -1024, 20224, -514, 9470, -16623, 768, 8704, 10211
0, 8192, -1024, 20224, 511, 8958, -16623, 512, 8960, 10467
-3585, 7936, -1792, 20480, 511, 8958, -16623, 256, 8960, 10723
-3585, 7936, -1792, 20224, 511, 9214, -16623, -13039, 8960, 11235
-7937, 7680, -3328, 20224, -2, 9214, -16367, -13295, 8960, 11491
-7937, 7680, -3328, 19968, -2, 9214, -16111, -13807, 8960, 11747
-14593, 7936, -5888, 20224, 767, 9214, -15599, -14575, 8960, 12259
-14593, 7936, -5888, 20224, -2, 9214, -15343, -14575, 8448, 12515
-14593, 7936, -5888, 19456, -2, 9214, -14831, -14831, 8192, 12771
-20737, 9216, -8704, 19456, 1023, 8958, -14575, -14831, 7680, 13027
-20737, 9216, -8704, 19456, 1023, 8958, -14063, -15087, 6912, 13283
-20737, 9216, -8704, 19456, 767, 9214, -13807, -15087, 5888, 13539
-29697, 9216, -10752, 18944, 255, 9470, -13039, -14831, 3840, 14051
-29697, 9216, -10752, 18432, 255, 9470, 0, -15087, 2560, 14307
27391, 9472, -13056, 18432, 767, 9214, 256, -15087, 1536, 14563
27391, 9472, -13056, 18688, 767, 9214, 768, -15599, 256, 14819
27391, 9472, -13056, 18688, 255, 9214, 1280, -16111, -13551, 15075
20735, 7168, -12032, 18176, 511, 9214, 2304, -17135, -16623, 15587
20735, 7168, -12032, 18432, 511, 9214, 2560, -17647, -18415, 15843
14847, 5120, -13824, 18432, 511, 9214, 3328, -18415, -19695, 16099
14847, 5120, -13824, 18176, 511, 9214, 3840, -18927, -21231, 16355
14847, 5120, -13824, 18176, -258, 9470, 4352, -19439, -22511, 16611
14591, 3840, -14080, 17920, 255, 9214, 4608, -20463, -24559, 17123
14591, 3840, -14080, 18176, 255, 9214, 4864, -20975, -25327, 17379
17919, 4096, -9472, 18176, -258, 9726, 4864, -21487, -25839, 17635
17919, 4096, -9472, 17664, -514, 9726, 4608, -22767, -26607, 18147
19455, 3840, -6656, 18176, -514, 9726, 4096, -23279, -26607, 18403
19455, 3840, -6656, 18176, -2, 9726, 3840, -23791, -26863, 18659
20223, 3072, -4864, 18176, -1026, 9726, 3328, -24815, -26863, 19171
20223, 3072, -4864, 17664, -1026, 9726, 3328, -25071, -26607, 19427
20223, 3072, -4864, 17664, -2, 9470, 2816, -25071, -26351, 19683
21247, 2304, -5632, 17408, -2, 9470, 2816, -25071, -26095, 19939
21247, 2304, -5632, 17152, -514, 9726, 2816, -24303, -25583, 20451
22015, 2304, -6144, 17152, -514, 9470, 2816, -23791, -24815, 20707
22015, 2304, -6144, 16896, -258, 9470, 2560, -22767, -23791, 21219
23807, 1792, -4096, 17152, -258, 9470, 2560, -21743, -23279, 21475
23807, 1792, -4096, 16640, -1026, 9726, 2560, -20207, -21999, 21987
24831, 1024, -2816, 16640, -258, 9470, 2560, -19183, -21487, 22243
24831, 1024, -2816, 16896, -770, 9726, 2304, -17391, -20207, 22755
25599, 0, -768, 16640, -770, 9726, 2560, -16879, -19695, 23011
25599, 0, -768, 16640, -1282, 9982, 2560, -16111, -18927, 23267
26879, 1024, 1, 16384, -514, 9470, 2304, -14575, -17647, 23779
26879, 1024, 1, 16640, -514, 9470, 2560, -14063, -16879, 24035
26879, 1024, 1, 16640, -1282, 10238, 2560, -13551, -16111, 24291
27391, 512, -256, 16128, -1282, 10238, 2560, -13039, -15343, 24547
27391, 512, -256, 16128, -770, 10238, 2816, -13039, -14831, 24803
27391, 512, 257, 16640, -1282, 10494, 3072, 0, -13551, 25315
27391, 512, 257, 16640, -1282, 10494, 3072, -12783, -13039, 25571
27391, 512, 257, 16640, -1538, 10238, 3072, -12783, -12783, 25827
27135, 1792, 1, 16640, -1538, 10238, 2816, -13039, 256, 26083
27135, 1792, 1, 16896, -1538, 10238, 2304, -13039, 512, 26595
27135, 3584, 1537, 16896, -2562, 10494, 1792, -13295, 256, 26851
27135, 3584, 1537, 16640, -2562, 10494, 1536, -13551, 256, 27107
27135, 3584, 1537, 16640, -1794, 10238, 1280, -13807, 256, 27363
27135, 6144, 3073, 16896, -1794, 10238, 512, -14063, 0, 27619
27135, 6144, 3073, 16896, -2050, 10494, 256, -14319, -12783, 27875
27135, 6144, 3073, 16128, -2050, 10494, -12783, -14575, -13039, 28131
29439, 8960, 3841, 16128, -2818, 10494, -13295, -14831, -13295, 28387
29439, 8960, 3841, 16384, -2818, 10494, -13807, -14831, -13807, 28643
29439, 8960, 3841, 16384, -1794, 10238, -14319, -14831, -14063, 28899
31231, 10240, 4865, 16384, -1794, 10238, -14831, -14831, -14575, 29155
31231, 10240, 4865, 16384, -2562, 10238, -15087, -14575, -14831, 29411
31231, 10240, 4865, 16384, -2562, 10238, -15599, -14319, -15599, 29667
32767, 11008, 5633, 16384, -2050, 9726, -16111, -14063, -15855, 29923
32767, 11008, 5633, 16128, -2050, 9726, -16111, -14575, -16111, 30179
32767, 11008, 5633, 16128, -1794, 10238, -16367, -13039, -16879, 30435
-29185, 8192, 3841, 16128, -1794, 10238, -16879, 2560, -18159, 30691
-29185, 8192, 3841, 16128, -2306, 10238, -17391, 3328, -18927, 30947
-28161, 11776, 8961, 16384, -770, 9726, -18159, 1536, -19183, 31459
-28161, 11776, 8961, 16896, -770, 9726, -18927, 1024, -19183, 31715
-28161, 11776, 8961, 16896, -1026, 9726, -19439, 1536, -19183, 31971
-24321, 9984, 9985, 17152, -1026, 9726, -20207, 2816, -19695, 32227
-24321, 9984, 9985, 17152, -514, 9470, -21231, 3328, -19695, 32739
-19457, 6912, 6657, 17152, -2, 9214, -21743, 3072, -19439, -32541
-19457, 6912, 6657, 18176, -2, 8958, -22767, 2560, -18927, -32029
-16385, 8192, 6913, 18176, -2, 8958, -23023, 1536, -18415, -31773
-16385, 8192, 6913, 18176, 1279, 8446, -23791, 1024, -17903, -31517
-16385, 8192, 6913, 18432, 1279, 8446, -23791, 1024, -17391, -31261
-12033, 8960, 5633, 18432, 1535, 8702, -24559, 768, -16879, -31005
-12033, 8960, 5633, 18688, 1535, 8702, -24559, 768, -16367, -30749
-12033, 8960, 5633, 18688, 2047, 8190, -24815, 768, -15599, -30493
-8449, 7424, 2049, 19200, 2047, 8190, -24815, 256, -15087, -30237
-8449, 7424, 2049, 19200, 3327, 7422, -24815, -12783, -14319, -29981
-8449, 7424, 2049, 19200, 3327, 7422, -24559, 0, -13551, -29725
-5377, 5632, 1537, 19200, 2815, 7422, -24303, 0, -13295, -29469
-5377, 5632, 1537, 19200, 2815, 7422, -24047, -12783, 0, -29213
-4609, 5888, -256, 19456, 4607, 6654, -23279, -13039, 1024, -28701
-4609, 5888, -256, 18944, 4863, 6910, -22255, 256, 1792, -28189
-5377, 4864, -1792, 18944, 5119, 6142, -21743, 768, 2048, -27933
-5377, 4864, -1792, 18944, 5119, 6142, -21231, 1024, 2048, -27677
-7169, 4352, -256, 19456, 6143, 5886, -19695, 2048, 2048, -27165
-7169, 4352, -256, 19456, 5631, 5886, -19183, 2816, 1792, -26909
-7169, 4352, -256, 19200, 5631, 5886, -18671, 3584, 1536, -26653
-10497, 4608, -1280, 19200, 6655, 5374, -18159, 4864, 1024, -26397
-10497, 4608, -1280, 19712, 6655, 5374, -17391, 5632, 768, -26141
-10497, 4608, -1280, 19712, 6911, 5374, -16623, 6144, 256, -25885
-11777, 4608, -1792, 19712, 6655, 5630, -15855, 8960, -13807, -25373
-11777, 4608, -1792, 19968, 6655, 5630, -15343, 9728, -14575, -25117
-11521, 4864, -4608, 19968, 7423, 5118, -14575, 9728, -15087, -24861
-11521, 4864, -4608, 20736, 7423, 5118, -14319, 10240, -15599, -24605
-11521, 4864, -4608, 20736, 6399, 5118, -13807, 10496, -16111, -24349
-11009, 3840, -3584, 21248, 6399, 5118, -13295, 10752, -16879, -24093
-11009, 3840, -3584, 21248, 7167, 4862, -13039, 10752, -17391, -23837
-10753, 2304, -2304, 22272, 7167, 5118, 256, 9728, -18159, -23325
-10753, 2304, -2304, 22784, 6399, 4862, 256, 9216, -18927, -22813
-7681, 2304, -3584, 23808, 7679, 4606, 768, 8192, -19439, -22301
-7681, 2304, -3584, 24576, 7679, 4606, 512, 7424, -19695, -22045
-6657, 3328, -1792, 24832, 6655, 5118, 512, 6656, -20207, -21533
-6657, 3328, -1792, 24832, 7423, 4350, 768, 6144, -20207, -21277
-2561, 4352, -1792, 26368, 7423, 4350, 768, 5376, -20207, -21021
-2561, 4352, -1792, 26368, 7423, 4606, 512, 4864, -20207, -20765
-2561, 4352, -1792, 26880, 7423, 4606, 512, 4096, -19951, -20509
256, 5888, -3072, 26880, 6911, 4350, 512, 3584, -19695, -20253
256, 5888, -3072, 27392, 6911, 4350, 512, 3072, -19183, -19997
256, 5888, -3072, 27392, 7679, 3838, 512, 2816, -18671, -19741
2560, 7424, -3072, 28416, 7679, 3838, 768, 2048, -18159, -19485
2560, 7424, -3072, 28416, 6911, 4094, 1024, 1792, -17903, -19229
2816, 6656, -4096, 28160, 7167, 3582, 1536, 1280, -17135, -18717
2816, 6656, -4096, 28928, 7167, 3582, 1792, 512, -16879, -18461
2816, 6656, -4096, 28928, 7679, 3582, 1792, 256, -17135, -18205
768, 6144, -4864, 29440, 7679, 3582, 2304, 0, -17391, -17949
768, 6144, -4864, 29440, 7167, 3582, 2304, -12783, -17903, -17693
768, 6144, -4864, 29952, 7167, 3582, 2560, -13039, -18159, -17437
-1025, 5376, -2048, 29952, 7935, 3070, 2560, -13039, -18927, -17181
-1025, 5376, -2048, 30208, 7935, 3070, 2816, -13039, -19439, -16925
-1025, 5376, -2048, 30208, 7423, 3326, 2816, -13551, -20207, -16669
-257, 7168, -2048, 30464, 7423, 3326, 2816, -13551, -20975, -16413
-257, 7168, -2048, 30464, 7423, 2558, 2816, -13551, -21487, -16157
-257, 7168, -2048, 31232, 7423, 2558, 2816, -13551, -22255, -15901
256, 9728, -2560, 31232, 7935, 2814, 2816, -13551, -23023, -15645
256, 9728, -2560, 31744, 7935, 2814, 2560, -13551, -23791, -15389
3072, 12032, -1024, 31744, 7167, 2814, 2560, -13551, -24815, -15133
3072, 12032, -1024, 32256, 7167, 2814, 2560, -13295, -25839, -14877
3072, 12032, -1024, 32256, 8191, 2558, 2560, -13295, -26863, -14621
6656, 12288, -1280, -32512, 8191, 2558, 2560, -13295, -27887, -14365
9472, 10496, -512, -31744, 8191, 2558, 2304, -13039, -30447, -13597
9472, 10496, -512, -31232, 8191, 2558, 2816, -13295, -31471, -13341
9472, 10496, -512, -31232, 9215, 2302, 2560, -13039, -31983, -13085
13568, 7936, 1, -30208, 9215, 2302, 2304, -12783, 32529, -12829
13568, 7936, 1, -30208, 8703, 3070, 2048, -13039, 32273, -12573
13568, 7936, 1, -29696, 8703, 3070, 2304, -13295, 31761, -12317
18688, 7936, 513, -29696, 9983, 2558, 2304, -13551, 31761, -12061
18688, 7936, 513, -28416, 10239, 2814, 3072, -14063, 32529, -11549
25600, 8960, -2048, -28160, 10239, 2814, 3328, -13807, -32239, -11293
25600, 8960, -2048, -28160, 10495, 3070, 3584, -13807, -31983, -11037
32256, 10496, -3072, -27392, 11263, 2558, 3840, -12783, -30447, -10525
32256, 10496, -3072, -26880, 11263, 2558, 3840, 0, -29935, -10269
32256, 10496, -3072, -26880, 11007, 3070, 4352, 256, -28911, -10013
-28672, 9984, -2816, -26112, 11007, 3070, 4352, 768, -28399, -9757
-28672, 9984, -2816, -26112, 11519, 3070, 4608, 1024, -27887, -9501
-25856, 8448, -1280, -25088, 12031, 3326, 5120, 1536, -26095, -8733
-22784, 6656, -768, -24064, 11775, 3582, 5376, 1536, -25327, -8221
-22784, 6656, -768, -23552, 12287, 3582, 5376, 1536, -24047, -7709
-19968, 6656, 513, -23552, 11519, 3838, 5632, 1536, -23791, -7453
-19968, 6656, 513, -23040, 11519, 3838, 5632, 1280, -23279, -7197
-19968, 6656, 513, -23040, 12287, 4350, 5376, 1280, -22511, -6941
-16640, 6656, 3585, -22272, 12287, 4350, 5120, 1280, -21487, -6685
-16640, 6656, 3585, -22272, 12031, 4094, 4608, 768, -20719, -6429
-16640, 6656, 3585, -22016, 12031, 4094, 4352, 512, -19439, -6173
-12288, 5888, 7937, -22016, 11775, 4350, 3328, 256, -18415, -5917
-12288, 5888, 7937, -21504, 11775, 4350, 2560, -12783, -16879, -5661
-9216, 5888, 11521, -21248, 11519, 4862, -12783, -13807, 0, -4893
-9216, 5888, 11521, -21248, 11519, 4862, -13807, -14319, 1536, -4637
-8704, 6656, 13057, -21248, 12543, 4094, -14831, -14575, 3072, -4381
-8704, 6656, 13057, -21248, 12543, 4094, -16111, -15087, 4608, -4125
-8704, 6656, 13057, -21248, 12287, 4606, -16879, -15343, 5888, -3869
-10496, 6656, 11265, -21248, 12287, 4606, -17903, -15599, 7168, -3613
-10496, 6656, 11265, -21248, 12031, 4350, -18671, -15855, 8192, -3357
-10496, 6656, 11265, -21760, 12031, 4350, -19439, -16111, 8960, -3101
-14080, 6656, 8961, -22016, 13055, 3838, -20463, -16111, 9984, -2589
-14080, 6656, 8961, -22016, 12799, 4094, -20719, -15855, 10496, -2333
-17152, 5888, 5889, -22272, 12799, 4094, -20975, -15599, 10752, -2077
-17152, 5888, 5889, -22272, 13311, 3070, -20719, -15343, 10752, -1821
-17152, 5888, 5889, -22784, 13311, 3070, -20975, -15087, 11008, -1565
-21248, 5376, 2305, -22784, 13567, 3070, -20719, -14575, 11008, -1309
-21248, 5376, 2305, -23296, 13567, 3070, -20463, -14063, 11008, -1053
-21248, 5376, 2305, -23296, 13055, 3326, -20463, -13295, 11008, -797
-24064, 5632, -768, -23296, 13055, 3326, -19951, -12783, 11264, -541
-24064, 5632, -768, -23296, 14079, 2814, -19439, 0, 11264, -285
-24064, 5632, -768, -23808, 14079, 2814, -19183, 256, 11264, -29
-27136, 7424, -2048, -23808, 13823, 3326, -18415, 512, 11264, 228
-27136, 7424, -2048, -24320, 13823, 3326, -18159, 512, 11520, 484
-27136, 7424, -2048, -24320, 13823, 2814, -17647, 512, 11520, 740
-30720, 7936, -2816, -24320, 14079, 3070, -17391, 768, 11776, 1252
-30720, 7936, -2816, -24320, 14079, 3070, -17135, 768, 11520, 1508
31232, 7424, -2816, -24832, 13567, 3070, -17135, 768, 11264, 2020
31232, 7424, -2816, -24832, 14079, 2814, -17135, 256, 11264, 2276
28416, 7936, -3328, -24832, 14079, 2814, -17135, 0, 11008, 2532
28416, 7936, -3328, -24832, 13567, 3070, -17135, -12783, 10752, 2788
28416, 7936, -3328, -25600, 13567, 3070, -16879, -13551, 10496, 3044
26368, 7936, -3072, -25600, 13567, 2558, -16879, -14831, 10496, 3556
26368, 7936, -3072, -25600, 13823, 2558, -16879, -15343, 10240, 3812
24320, 8704, -3072, -26112, 13823, 2558, -16623, -16111, 10240, 4068
24320, 8704, -3072, -26880, 13055, 2558, -16623, -17391, 10240, 4580
23808, 8704, -3840, -26880, 13567, 2302, -16367, -17903, 10240, 4836
23808, 8704, -3840, -26880, 13567, 2302, -16367, -18415, 10240, 5092
20736, 9472, -3328, -27904, 12799, 1790, -15855, -19439, 10496, 5604
20736, 9472, -3328, -27904, 12799, 2046, -15855, -19695, 10496, 5860
20736, 9472, -3328, -28416, 12799, 2046, -15855, -20207, 10496, 6116
20224, 9216, -1024, -28416, 13055, 1534, -15855, -20207, 10496, 6372
20224, 9216, -1024, -29696, 13055, 1534, -15599, -20207, 10496, 6628
20224, 9216, -1024, -29696, 12031, 1790, -15343, -19951, 10240, 6884
18688, 9728, -2048, -30464, 12031, 1790, -15343, -19695, 10240, 7140
18688, 9728, -2048, -30464, 12287, 766, -15087, -19439, 9984, 7396
18688, 9728, -2048, -31232, 12287, 766, -14831, -18927, 9984, 7652
16640, 10496, -512, -32000, 12031, 1022, -14063, -18159, 9728, 8164
15104, 10240, 257, 32512, 11263, 1022, -13295, -17391, 9472, 8676
15104, 10240, 257, 32512, 11775, 766, -12783, -17135, 9472, 8932
12032, 10240, 1025, 32000, 10751, 1278, 256, -16367, 9216, 9444
12032, 10240, 1025, 30976, 10751, 1278, 768, -15855, 8960, 9700
12032, 10240, 1025, 30976, 10751, 766, 1280, -15343, 8704, 9956
9216, 9728, 1537, 30720, 10751, 766, 1792, -15343, 8704, 10212
9216, 9728, 1537, 30720, 10239, 1278, 2304, -15087, 8448, 10468
9216, 9728, 1537, 29952, 10239, 1278, 2816, -15087, 8192, 10724
6400, 10752, 1793, 29952, 8959, 1278, 3328, -15087, 7936, 10980
6400, 10752, 1793, 29440, 8959, 1278, 3328, -14831, 7936, 11236
6400, 10752, 1793, 29440, 9727, 1278, 3840, -14831, 7936, 11492
5376, 11264, 3585, 28928, 9727, 1278, 3840, -14831, 7936, 11748
5376, 11264, 3585, 28928, 7935, 1790, 3584, -14831, 7680, 12004
5376, 11264, 3585, 28160, 7935, 1790, 3584, -15343, 7424, 12260
3584, 12032, 7169, 28160, 7679, 2046, 3328, -15343, 7424, 12516
3584, 12032, 7169, 27648, 7679, 2046, 2816, -15599, 7424, 12772
3584, 12032, 7169, 27648, 7423, 2302, 2304, -15855, 7680, 13028
5376, 12032, 7937, 26624, 7423, 2302, 1792, -16111, 7936, 13284
5376, 12032, 7937, 26112, 6655, 2558, 768, -16367, 8192, 13796
6144, 13056, 9473, 26112, 6655, 2558, 0, -16879, 8448, 14052
6144, 13056, 9473, 25600, 5887, 3070, -13551, -17135, 9216, 14564
6912, 12032, 8961, 24576, 5887, 3070, -13807, -17135, 9472, 14820
6912, 12032, 8961, 24320, 5887, 3070, -14831, -16879, 9728, 15332
6400, 11520, 7681, 24320, 6143, 3582, -15087, -16367, 9984, 15588
6400, 11520, 7681, 23552, 6143, 3582, -15343, -16111, 10240, 15844
4096, 10240, 4609, 22528, 5375, 3838, -15599, -15343, 9984, 16356
4096, 10240, 4609, 22528, 6143, 3582, -15599, -14575, 9984, 16612
4096, 10240, 4609, 22272, 6143, 3582, -15343, -14319, 9728, 16868
2560, 8448, 1537, 21504, 5375, 4350, -14831, -13039, 9728, 17380
2560, 8448, 1537, 21504, 5375, 4350, -14575, -12783, 9472, 17636
1024, 6656, -1536, 21248, 5375, 4350, -14319, 0, 9216, 17892
1024, 6656, -1536, 21248, 5887, 4350, -13807, 256, 9216, 18148
256, 5376, -2816, 21248, 4863, 4606, 0, 1024, 8960, 18660
256, 5376, -2816, 20480, 4863, 4606, 256, 768, 8704, 18916
256, 3840, -2304, 20480, 5631, 4862, 768, 768, 8192, 19428
256, 3840, -2304, 20480, 4863, 5374, 768, 768, 7936, 19684
256, 3072, -1280, 20224, 4607, 5630, 768, 768, 7936, 20196
256, 3072, -1280, 19712, 4607, 5630, 768, 512, 8192, 20452
256, 3072, -1280, 19712, 4863, 5374, 512, 512, 8192, 20708
1024, 3584, -256, 20224, 4863, 5374, 256, 512, 8448, 20964
1024, 3584, -256, 20224, 4095, 5886, 0, 256, 8704, 21220
1024, 3584, -256, 19712, 4095, 5886, -12783, 256, 8960, 21476
768, 4864, -768, 19712, 4351, 5886, -13295, 0, 9216, 21732
768, 4864, -768, 19712, 4351, 5886, -13551, -12783, 9728, 21988
768, 4864, -768, 19712, 4095, 6142, -13807, -13039, 9984, 22244
-1, 5376, -2304, 18688, 4095, 6142, -13807, -13295, 10240, 22500
-1, 5376, -2304, 18688, 3583, 6398, -14063, -13295, 10752, 22756
-1, 5376, -2304, 19200, 3583, 6398, -14319, -13295, 10752, 23012
-2817, 6144, -5120, 19200, 4351, 6398, -14319, -13039, 10752, 23268
-2817, 6144, -5120, 18944, 4351, 6398, -14319, -13295, 10752, 23524
-2817, 6144, -5120, 18944, 3839, 6654, -14319, -13295, 10752, 23780
-7169, 4864, -7424, 18432, 3839, 6654, -14575, -13807, 10496, 24036
-7169, 4864, -7424, 18432, 3839, 6398, -14319, -14063, 10496, 24292
-7169, 4864, -7424, 18176, 3839, 6398, -14319, -14319, 10240, 24548
-12801, 5376, -9728, 17408, 3583, 6910, -13551, -15599, 9984, 25572
-12801, 5376, -9728, 17408, 4095, 6654, -13039, -15855, 10240, 25828
-12801, 5376, -9728, 17408, 4095, 6654, -12783, -16367, 10496, 26084
-15361, 6400, -10496, 17408, 3327, 6910, 0, -16623, 10752, 26340
-15361, 6400, -10496, 16640, 3583, 6654, 1280, -16879, 11520, 26852
-17153, 6144, -10496, 16384, 3327, 7166, 2048, -17135, 12032, 27364
-17153, 6144, -10496, 15616, 3327, 7166, 2560, -17135, 12032, 27620
-21249, 6144, -11008, 15616, 2303, 7422, 3072, -17135, 12032, 27876
-21249, 6144, -11008, 15104, 2303, 7422, 3840, -17135, 12032, 28132
-21249, 6144, -11008, 15104, 3071, 7166, 4352, -16879, 12032, 28388
-27393, 7168, -11264, 14592, 3071, 7166, 5120, -16367, 11520, 28644
-27393, 7168, -11264, 14592, 2047, 7422, 5632, -16367, 11520, 28900
-27393, 7168, -11264, 14080, 2047, 7422, 6144, -15855, 11008, 29156
-32257, 8192, -10752, 14080, 1535, 7934, 6656, -15599, 10496, 29412
-32257, 8192, -10752, 13824, 1535, 7934, 7168, -15087, 10240, 29668
-32257, 8192, -10752, 13824, 1279, 7678, 7424, -15087, 9728, 29924
28159, 8448, -11776, 13568, 1279, 7678, 7680, -15087, 9216, 30180
28159, 8448, -11776, 12288, 255, 8190, 8192, -15087, 8192, 30692
23807, 8704, -9472, 12288, 255, 8446, 8192, -15343, 7424, 30948
23807, 8704, -9472, 12544, 255, 8446, 8192, -16111, 6912, 31204
23807, 8704, -9472, 12544, -514, 8958, 8192, -16623, 6656, 31460
20479, 8448, -6400, 12288, -514, 8958, 7936, -17391, 6144, 31716
20479, 8448, -6400, 12288, -1538, 8958, 7680, -18415, 5888, 31972
20479, 8448, -6400, 11520, -1538, 8958, 7168, -18927, 5632, 32228
19455, 9728, -4608, 11520, -1026, 9214, 6656, -19695, 5376, 32484
19455, 9728, -4608, 11520, -1026, 9214, 6400, -20463, 5376, 32740
19455, 9728, -4608, 11520, -2562, 9470, 5888, -20975, 5120, -32540
18431, 11776, -1536, 11008, -2562, 9470, 5376, -21487, 4864, -32284
18431, 11776, -1536, 10496, -2050, 9214, 4608, -22511, 4352, -31772
16639, 13568, -1792, 10496, -3074, 9982, 4352, -22767, 4096, -31516
16639, 13568, -1792, 9472, -3074, 9982, 3840, -23023, 4096, -31260
16639, 13568, -1792, 9472, -3074, 9726, 3840, -23279, 3328, -31004
15359, 13824, -1280, 9216, -2818, 9470, 3840, -23279, 2560, -30492
15359, 13824, -1280, 8192, -2818, 9470, 3584, -22767, 2048, -30236
14079, 14336, -768, 8192, -3842, 10238, 3584, -22511, 1280, -29980
14079, 14336, -768, 7424, -3842, 10238, 3584, -22255, 768, -29724
14079, 14336, -768, 7424, -3586, 9982, 3584, -21999, 0, -29468
13823, 13312, 1, 7168, -3586, 9982, 3328, -21231, -13039, -29212
13823, 13312, 1, 7168, -4098, 10238, 3584, -20719, -13807, -28956
15359, 12288, 4353, 6656, -4354, 10238, 3072, -19183, -14831, -28444
15359, 12288, 4353, 6144, -4354, 10238, 2816, -18415, -15343, -28188
15359, 12288, 4353, 6144, -4098, 9982, 2816, -17135, -15599, -27932
17407, 12032, 7681, 5888, -4098, 9982, 2560, -16111, -16367, -27676
17407, 12032, 7681, 5888, -5122, 10494, 2048, -14831, -16623, -27420
17407, 12032, 7681, 5888, -5122, 10494, 1536, -13807, -17135, -27164
20479, 11776, 7425, 5888, -4866, 10238, 1536, -13807, -17135, -26908
20479, 11776, 7425, 5888, -4866, 10238, 1024, 768, -18159, -26652
20479, 11776, 7425, 5888, -4866, 10238, 512, 1536, -18415, -26396
24319, 11520, 7937, 5632, -4610, 9982, 256, 2304, -18927, -26140
24319, 11520, 7937, 5632, -4610, 9982, -12783, 3072, -19183, -25884
24319, 11520, 7937, 5632, -5122, 10238, -13039, 3072, -19439, -25628
28927, 11008, 9473, 6400, -5122, 10238, -13807, 3328, -19695, -25372
28927, 11008, 9473, 6400, -4610, 10494, -14575, 3584, -19951, -25116
28927, 11008, 9473, 6912, -4610, 10494, -15087, 3328, -20207, -24860
-30721, 8960, 9985, 6912, -5122, 10238, -15855, 3328, -20207, -24604
-30721, 8960, 9985, 7424, -5122, 10238, -16623, 3072, -20207, -24348
-30721, 8960, 9985, 7424, -4098, 9982, -17135, 2560, -20463, -24092
-26113, 7680, 9729, 7936, -4098, 9982, -17903, 2560, -20207, -23836
-26113, 7680, 9729, 7936, -4354, 10238, -18415, 2048, -20463, -23580
-26113, 7680, 9729, 7936, -4354, 10238, -19183, 2048, -20207, -23324
-21505, 7424, 8449, 7936, -3842, 9982, -19695, 1792, -19951, -23068
-21505, 7424, 8449, 8448, -3842, 9982, -20463, 1536, -19695, -22812
-21505, 7424, 8449, 8448, -3074, 9470, -20975, 1280, -19183, -22556
-16385, 7168, 8193, 8960, -3074, 9470, -21487, 1280, -18927, -22300
-16385, 7168, 8193, 8960, -3330, 9726, -21999, 1280, -18671, -22044
-16385, 7168, 8193, 8704, -3330, 9726, -22511, 1280, -18415, -21788
